Folder: Linux_class/xrd_output

Note: README.md
# Linux_class

Output files of various instruments/programs used at Umich EES dept.
Example python scrips on how to analyze and plot results.
Learn how to analyze data and make publication-quality plots with python. Also
learn basic bash navigation and file manipulation. Work more efficiently.

Week 1: Intro to the terminal, basic bash commands, VI. Vimtutor, linuxjourney. No directory to work out of

Week 2: Intalling the Anaconda package together. Work out of lists\_and\_strings. Strings,lists,file parsing, ipython interpreter.

Week 3: Work out of gephen directory. Simple scatter plotting and parsing. Intro to matplotlib and numpy.

Week 4: Work out of xrd\_outptut. Multiple subplot figures. Parsing xrd output file. ax.fill\_between. Gaussian blur from the scipy library to find peaks.

Week 5: Work out of interp\_polyfit. Use webplotdigitizer to get data from display.pdf and reproduce. Use Polygon patches, text annotation, interp1d, and polyfit.

Week 6: Work out of twin\_axes. Reproduce Spencer's scatterplot and introduce axes twinning. make\_plot.py reproduces the figure as close as possible, sams\_version shows a different concept.

Week 7: Introduce the Pandas series object and how it relates to the 
dataframe object. Also loose ends with vimrc, bashrc, ipython startup,chmod. 
Work out of pandas\_intro and rc\_files.

Week 8: Introduce and play around with the sympy library. Mostly for fun.
Work out of sympy directory

Week 9: Spring break during the Spring semester.

Week 10: Work out of colormap directory. colormaps and gridspec.

Week 11: Basics of git and github. Use github to download vim-airline. Use github\_intro as a test folder for this.

Week 12: hdf5 and h5py

Week 13: argparser

Week 14: modules and intro to classes. Use mendeleev as an example. Possible neutron scattering?

Week 15: Back to bash! bash scripting. Explore advanced bash script techniques.

File: 2M1-std2.TXT
Sample
Comments
Filename	C:\WINDMAX\DATA\USERS\GEO\GEO_ER~1\Pyrenees\BULKMA~1\2M1-std2.raw
Goniometer	Ultima IV In-plane
Attachment	Auto sample changer (10 samples)
ScanningMode	2Theta/Theta
ScanningType	Continuos Scanning
X-Ray	40kV/44mA
DivSlit	2/3deg.
DivH.L.Slit	10mm
SctSlit	2/3deg.
RecSlit	0.3mm
Start	16
Stop	44
Step	0.02
Speed	0.3
Offset	0
16	694
16.1	730.75
16.2	695.5
16.3	655.25
16.4	631.5
16.5	642.75
16.6	635.5
16.7	638.5
16.8	655.75
16.9	648
17	640.75
17.1	644.25
17.2	633.75
17.3	651.75
17.4	684.75
17.5	711
17.6	780
17.7	903.25
17.8	1093.5
17.9	1347.75
18	1316.75
18.1	1167.25
18.2	942.5
18.3	763.75
18.4	749.25
18.5	729
18.6	761.5
18.7	746.5
18.8	757
18.9	704.75
19	679.25
19.1	704
19.2	719.75
19.3	761.5
19.4	763
19.5	797.75
19.6	928
19.7	1160.75
19.8	1508
19.9	2204
20	2671.5
20.1	2341.5
20.2	1503.5
20.3	1168.25
20.4	1086.25
20.5	963
20.6	995.5
20.7	1117.25
20.8	1223.5
20.9	1093
21	903.75
21.1	788.25
21.2	788.25
21.3	798.75
21.4	823.75
21.5	927.25
21.6	1034.75
21.7	1102.25
21.8	1053.5
21.9	940.75
22	849
22.1	805
22.2	794.75
22.3	826
22.4	843
22.5	908.25
22.6	920.5
22.7	929.75
22.8	1032.5
22.9	1251.25
23	1538
23.1	1609
23.2	1326.5
23.3	1036
23.4	874.75
23.5	862.5
23.6	916.75
23.7	1010
23.8	1186.5
23.9	1434.25
24	1573.75
24.1	1453
24.2	1315.75
24.3	1102
24.4	949
24.5	845.25
24.6	818.5
24.7	816.5
24.8	810.25
24.9	870.5
25	910.25
25.1	1012.5
25.2	1087
25.3	1152.25
25.4	1199.75
25.5	1434.25
25.6	1692.75
25.7	1644.75
25.8	1293.25
25.9	1015
26	913.75
26.1	873.75
26.2	865.5
26.3	919
26.4	977.75
26.5	1131.25
26.6	1400.5
26.7	1823
26.8	2266.75
26.9	2347.25
27	1875.25
27.1	1374.75
27.2	1082.75
27.3	976.5
27.4	898.25
27.5	902.5
27.6	953
27.7	1015.25
27.8	1154.25
27.9	1461.75
28	1704.25
28.1	1531.5
28.2	1239.5
28.3	1064.25
28.4	931.75
28.5	888
28.6	866.75
28.7	928.25
28.8	900.75
28.9	881.25
29	843.25
29.1	837.25
29.2	771.5
29.3	740.25
29.4	751.25
29.5	740.75
29.6	798.25
29.7	903.25
29.8	1070.5
29.9	1330.5
30	1551.25
30.1	1417.5
30.2	1141
30.3	903.25
30.4	800.75
30.5	724
30.6	708
30.7	699.5
30.8	729.5
30.9	757.75
31	828.25
31.1	965
31.2	1152
31.3	1427.75
31.4	1570.25
31.5	1468
31.6	1472.25
31.7	1423
31.8	1355.75
31.9	1175
32	1033.5
32.1	1105.5
32.2	1156.25
32.3	1070.75
32.4	843.75
32.5	759.5
32.6	745
32.7	693.75
32.8	691.75
32.9	699.25
33	720.5
33.1	683.75
33.2	679.25
33.3	654.75
33.4	646.5
33.5	637.5
33.6	625.25
33.7	665
33.8	672.25
33.9	684.5
34	717
34.1	736
34.2	768
34.3	730.5
34.4	781
34.5	897.25
34.6	1149.5
34.7	1519.25
34.8	1682.5
34.9	1776.5
35	2066.75
35.1	2657
35.2	2807.5
35.3	2091
35.4	1400.5
35.5	1005.25
35.6	883
35.7	801.25
35.8	795.5
35.9	839.5
36	856.75
36.1	855
36.2	866.5
36.3	822.5
36.4	872.75
36.5	978.75
36.6	1094
36.7	1067.25
36.8	1024
36.9	967.5
37	921.5
37.1	805.25
37.2	774.75
37.3	761.25
37.4	812.5
37.5	866
37.6	919.25
37.7	1033.75
37.8	1113.5
37.9	1201.75
38	1161.25
38.1	1015.75
38.2	873.75
38.3	820.25
38.4	760
38.5	698
38.6	640
38.7	612.75
38.8	613.75
38.9	593.75
39	604.25
39.1	587.5
39.2	625.75
39.3	608.5
39.4	621.25
39.5	594.75
39.6	619.75
39.7	628
39.8	633.5
39.9	650.75
40	670.5
40.1	764.5
40.2	846.25
40.3	885.25
40.4	849.75
40.5	811.25
40.6	804.5
40.7	747.25
40.8	829.5
40.9	876.5
41	854.75
41.1	837
41.2	792
41.3	767.5
41.4	788.75
41.5	775.75
41.6	747.25
41.7	705.25
41.8	662.25
41.9	720
42	772.25
42.1	856.75
42.2	922
42.3	954.25
42.4	988
42.5	1045.75
42.6	1042.5
42.7	979.75
42.8	789.25
42.9	663.75
43	632.5
43.1	585.5
43.2	559.25
43.3	561.25
43.4	539.25
43.5	559.25
43.6	577.75
43.7	559.75
43.8	591.25
43.9	599
44	606

File: JA_08-C.TXT
Sample
Comments
Filename	C:\WINDMAX\DATA\USERS\GEO\GEO_ER~1\Pyrenees\BULKMA~1\JA_08-C.raw
Goniometer	Ultima IV In-plane
Attachment	Auto sample changer (10 samples)
ScanningMode	2Theta/Theta
ScanningType	Continuos Scanning
X-Ray	40kV/44mA
DivSlit	2/3deg.
DivH.L.Slit	10mm
SctSlit	2/3deg.
RecSlit	0.3mm
Start	16
Stop	44
Step	0.02
Speed	0.3
Offset	0
16	518.75
16.1	510.75
16.2	535.75
16.3	519.75
16.4	523.5
16.5	506.25
16.6	529.25
16.7	498.5
16.8	507.5
16.9	519.75
17	530.25
17.1	529
17.2	528.25
17.3	538.5
17.4	552.5
17.5	560.25
17.6	547.5
17.7	582.5
17.8	629.25
17.9	627.75
18	623
18.1	588.25
18.2	577
18.3	567.5
18.4	568.75
18.5	565.25
18.6	593
18.7	627.5
18.8	748.75
18.9	730.25
19	594
19.1	601
19.2	599.25
19.3	570.75
19.4	588
19.5	614.5
19.6	643.75
19.7	737.25
19.8	834.25
19.9	886.5
20	768.75
20.1	644.5
20.2	645.5
20.3	615.25
20.4	604
20.5	626
20.6	672.75
20.7	791.75
20.8	1123.75
20.9	1513
21	930.75
21.1	611.5
21.2	561.5
21.3	577
21.4	561.5
21.5	585.5
21.6	549.75
21.7	584.5
21.8	575
21.9	594.5
22	651.75
22.1	686.75
22.2	594.25
22.3	532.25
22.4	543.5
22.5	564.25
22.6	573
22.7	587.5
22.8	628.75
22.9	684.5
23	816.75
23.1	1019.25
23.2	856.25
23.3	632.5
23.4	564.75
23.5	566
23.6	599
23.7	645.75
23.8	752.25
23.9	986
24	1559
24.1	1512.75
24.2	803.5
24.3	709.5
24.4	642.5
24.5	589
24.6	561.25
24.7	550.5
24.8	588.25
24.9	594
25	610.25
25.1	673.75
25.2	713
25.3	702.75
25.4	656.25
25.5	690
25.6	631
25.7	598
25.8	570.75
25.9	563.5
26	567.75
26.1	551.25
26.2	600.75
26.3	751.5
26.4	1289
26.5	2617.5
26.6	5131
26.7	5492.75
26.8	2103.5
26.9	901.25
27	688
27.1	631.5
27.2	599.5
27.3	571.5
27.4	597
27.5	611.5
27.6	646.25
27.7	731.5
27.8	838
27.9	876
28	823
28.1	716.75
28.2	713.5
28.3	668.5
28.4	609.25
28.5	581.75
28.6	556.25
28.7	538.5
28.8	559.25
28.9	552.5
29	591.75
29.1	687
29.2	923.75
29.3	1689.75
29.4	4418.75
29.5	6121.5
29.6	3150
29.7	1119.25
29.8	744.25
29.9	663.5
30	618.25
30.1	616.75
30.2	593.5
30.3	577.5
30.4	569.75
30.5	592.75
30.6	647.75
30.7	727
30.8	895.25
30.9	1049.25
31	921.75
31.1	741.5
31.2	665.75
31.3	662.25
31.4	697.5
31.5	742.5
31.6	714
31.7	599.5
31.8	571.5
31.9	557.75
32	545.25
32.1	533.75
32.2	547.25
32.3	552.5
32.4	647.5
32.5	643
32.6	563.5
32.7	491.75
32.8	526.75
32.9	609
33	582.75
33.1	554.75
33.2	526.75
33.3	529.25
33.4	514.5
33.5	540.5
33.6	552
33.7	536
33.8	550.75
33.9	533.25
34	519.75
34.1	514.75
34.2	510
34.3	534
34.4	557.75
34.5	647
34.6	694.25
34.7	674
34.8	696.25
34.9	762.75
35	809
35.1	782.25
35.2	697
35.3	625
35.4	680.25
35.5	876
35.6	757.25
35.7	633.75
35.8	608.75
35.9	757.75
36	1105.5
36.1	1164.5
36.2	822.25
36.3	655.25
36.4	648.5
36.5	828.75
36.6	921.75
36.7	727.25
36.8	616.25
36.9	596
37	594.75
37.1	540.75
37.2	584.25
37.3	597.5
37.4	628.5
37.5	630.25
37.6	637.25
37.7	623
37.8	600.75
37.9	568.5
38	562.75
38.1	537.75
38.2	570
38.3	507
38.4	506
38.5	465.25
38.6	499.25
38.7	532.5
38.8	636.75
38.9	713
39	599.25
39.1	512.25
39.2	566.5
39.3	732
39.4	1335.5
39.5	1817.75
39.6	1319.5
39.7	770.25
39.8	573.75
39.9	548.25
40	533
40.1	546
40.2	599.5
40.3	666.25
40.4	627
40.5	540.75
40.6	512.75
40.7	533
40.8	560
40.9	560.25
41	617
41.1	661.25
41.2	650.25
41.3	571.5
41.4	516.25
41.5	480.25
41.6	475.25
41.7	465.75
41.8	474.5
41.9	499.75
42	501.75
42.1	523.75
42.2	536
42.3	615.25
42.4	796.25
42.5	813.5
42.6	725.75
42.7	723
42.8	664.75
42.9	600
43	588.25
43.1	781.25
43.2	1277
43.3	1264
43.4	925.5
43.5	702
43.6	745
43.7	704.75
43.8	592.25
43.9	536.25
44	509.75

File: JA_08-F.TXT
Sample
Comments
Filename	C:\WINDMAX\DATA\USERS\GEO\GEO_ER~1\Pyrenees\BULKMA~1\JA_08-F.raw
Goniometer	Ultima IV In-plane
Attachment	Auto sample changer (10 samples)
ScanningMode	2Theta/Theta
ScanningType	Continuos Scanning
X-Ray	40kV/44mA
DivSlit	2/3deg.
DivH.L.Slit	10mm
SctSlit	2/3deg.
RecSlit	0.3mm
Start	16
Stop	44
Step	0.02
Speed	0.3
Offset	0
16	724
16.1	768.25
16.2	817.75
16.3	855.75
16.4	719.5
16.5	695.5
16.6	685.75
16.7	671.75
16.8	699.75
16.9	687
17	706.25
17.1	713.75
17.2	741.25
17.3	855.25
17.4	866.25
17.5	829.25
17.6	849.5
17.7	936.25
17.8	969.75
17.9	960
18	927.5
18.1	968.75
18.2	1008.25
18.3	883.5
18.4	824.75
18.5	846
18.6	919.25
18.7	1015.5
18.8	924.5
18.9	802
19	768.25
19.1	797.75
19.2	777.5
19.3	826.75
19.4	813
19.5	935.5
19.6	1103.25
19.7	1286.5
19.8	1451.5
19.9	1364.5
20	1328.25
20.1	1404
20.2	1474.5
20.3	1227
20.4	1085.25
20.5	1138.5
20.6	1389.75
20.7	1821.25
20.8	1773.5
20.9	1246
21	984
21.1	897.5
21.2	868.75
21.3	887.25
21.4	870.75
21.5	827
21.6	827.5
21.7	823.5
21.8	879.25
21.9	932.25
22	994
22.1	871.5
22.2	822.75
22.3	824
22.4	827.75
22.5	812.5
22.6	834.75
22.7	868.5
22.8	884.5
22.9	962.75
23	996
23.1	1034.75
23.2	961.25
23.3	954.75
23.4	1003.25
23.5	917.25
23.6	877.75
23.7	900
23.8	905.75
23.9	926.25
24	915
24.1	914.75
24.2	924.75
24.3	894.75
24.4	864
24.5	915.25
24.6	925.25
24.7	954.75
24.8	874
24.9	914.75
25	933.25
25.1	951.75
25.2	995
25.3	1026.75
25.4	1053
25.5	1077
25.6	1071.25
25.7	1023.5
25.8	1006.5
25.9	973
26	972.25
26.1	1019.75
26.2	1188
26.3	1269.25
26.4	1349.25
26.5	1441.25
26.6	1382.5
26.7	1295.75
26.8	1156.25
26.9	1033.25
27	1033
27.1	953
27.2	939
27.3	967.25
27.4	926
27.5	917.75
27.6	936.5
27.7	983.75
27.8	1047.5
27.9	1063.75
28	1087
28.1	1029
28.2	977.5
28.3	943.75
28.4	1001.5
28.5	1033.25
28.6	1069
28.7	1066.25
28.8	1117.25
28.9	1276.5
29	1602.5
29.1	1988
29.2	2115.25
29.3	2489.5
29.4	2733.25
29.5	2038
29.6	1617.25
29.7	1332.75
29.8	1160.5
29.9	1066.25
30	1006.75
30.1	1051
30.2	1000.75
30.3	957.75
30.4	987
30.5	955.75
30.6	887
30.7	945.25
30.8	1071.75
30.9	1122.25
31	1275
31.1	1484.5
31.2	1333
31.3	1164.25
31.4	1132.5
31.5	1213.25
31.6	1335
31.7	1371.5
31.8	1237.5
31.9	1042.25
32	1024.5
32.1	1013.75
32.2	970
32.3	887.25
32.4	864
32.5	797.25
32.6	776.5
32.7	796
32.8	787.25
32.9	798.25
33	805
33.1	798
33.2	868
33.3	971.25
33.4	1121.75
33.5	953.5
33.6	832.25
33.7	763.5
33.8	735.5
33.9	753
34	723.5
34.1	738.75
34.2	738.25
34.3	793.25
34.4	880.25
34.5	1028
34.6	1079.5
34.7	1057.75
34.8	1127.25
34.9	1169.25
35	1127
35.1	1058
35.2	934.25
35.3	873.25
35.4	871.5
35.5	861.25
35.6	815.25
35.7	748.75
35.8	778
35.9	868.5
36	996.75
36.1	947
36.2	800.5
36.3	805.75
36.4	781.25
36.5	828.75
36.6	840.5
36.7	851.75
36.8	817.75
36.9	774.75
37	726
37.1	768
37.2	761.75
37.3	799.75
37.4	825.5
37.5	839.25
37.6	842.5
37.7	840.5
37.8	827.25
37.9	774
38	770.25
38.1	747.5
38.2	734.5
38.3	715
38.4	664.5
38.5	652
38.6	640
38.7	674.75
38.8	704
38.9	708.25
39	721
39.1	712.75
39.2	721.5
39.3	782.25
39.4	880.25
39.5	900.5
39.6	771
39.7	728.75
39.8	691.25
39.9	699.75
40	688
40.1	717
40.2	697.75
40.3	690.5
40.4	707.25
40.5	725.25
40.6	764.5
40.7	800
40.8	783.75
40.9	748
41	715.75
41.1	722.25
41.2	673.75
41.3	660.75
41.4	672
41.5	670.25
41.6	676
41.7	686.25
41.8	705.5
41.9	725
42	760
42.1	774
42.2	759.25
42.3	772
42.4	816.75
42.5	809
42.6	736.5
42.7	682.75
42.8	682.5
42.9	661.25
43	698
43.1	773
43.2	944.25
43.3	994.5
43.4	931.25
43.5	886.5
43.6	835.5
43.7	808.25
43.8	717.75
43.9	686.75
44	690.75

File: JA_08-M.TXT
Sample
Comments
Filename	C:\WINDMAX\DATA\USERS\GEO\GEO_ER~1\Pyrenees\BULKMA~1\JA_08-M.raw
Goniometer	Ultima IV In-plane
Attachment	Auto sample changer (10 samples)
ScanningMode	2Theta/Theta
ScanningType	Continuos Scanning
X-Ray	40kV/44mA
DivSlit	2/3deg.
DivH.L.Slit	10mm
SctSlit	2/3deg.
RecSlit	0.3mm
Start	16
Stop	44
Step	0.02
Speed	0.3
Offset	0
16	948.75
16.1	905.25
16.2	901.25
16.3	909.5
16.4	898.5
16.5	897
16.6	901
16.7	928.75
16.8	954.75
16.9	974.75
17	929.25
17.1	944.25
17.2	943.5
17.3	972.5
17.4	1024.75
17.5	1106.25
17.6	1134
17.7	1266
17.8	1315
17.9	1243.25
18	1191.25
18.1	1085
18.2	1038
18.3	1037.5
18.4	1040.75
18.5	1070.25
18.6	1119.5
18.7	1212.5
18.8	1277.5
18.9	1125.25
19	1063.25
19.1	1050.25
19.2	1086.75
19.3	1119.75
19.4	1129.75
19.5	1164
19.6	1348.75
19.7	1664.5
19.8	1839.5
19.9	1803.5
20	1500.25
20.1	1285.75
20.2	1234.75
20.3	1171
20.4	1181.5
20.5	1209.25
20.6	1267.75
20.7	1420.75
20.8	1667.75
20.9	1620.75
21	1236.25
21.1	1099
21.2	1056
21.3	1076.75
21.4	1113
21.5	1136
21.6	1119.5
21.7	1076.25
21.8	1072.75
21.9	1049.25
22	1075.25
22.1	1083.5
22.2	1056
22.3	1038.5
22.4	1077.25
22.5	1109.75
22.6	1132.75
22.7	1216
22.8	1281.5
22.9	1358
23	1399.5
23.1	1354.25
23.2	1179.75
23.3	1096.5
23.4	1105
23.5	1109.75
23.6	1172
23.7	1239.75
23.8	1442.5
23.9	1712.5
24	2083.75
24.1	1670.5
24.2	1376.75
24.3	1222.5
24.4	1178
24.5	1131
24.6	1110.75
24.7	1186.75
24.8	1195
24.9	1280.5
25	1387.5
25.1	1582
25.2	1530.75
25.3	1465.25
25.4	1408.5
25.5	1378.75
25.6	1272.5
25.7	1203
25.8	1121.75
25.9	1131
26	1080.25
26.1	1127
26.2	1257.75
26.3	1447
26.4	2007
26.5	3333
26.6	5203.25
26.7	4502.5
26.8	2455.5
26.9	1686.5
27	1422
27.1	1269.75
27.2	1206.25
27.3	1188.75
27.4	1178
27.5	1192.5
27.6	1236.75
27.7	1342.25
27.8	1419
27.9	1422.25
28	1314.75
28.1	1208
28.2	1176
28.3	1121.75
28.4	1084.5
28.5	1088.5
28.6	1053.75
28.7	1057.25
28.8	1058.5
28.9	1085.75
29	1136.5
29.1	1192.5
29.2	1429
29.3	2165.75
29.4	3424.5
29.5	2995.5
29.6	1820.25
29.7	1351.75
29.8	1288.5
29.9	1244
30	1215.5
30.1	1106.75
30.2	1055
30.3	1034.25
30.4	1047.25
30.5	1029.5
30.6	1036.25
30.7	1114.5
30.8	1170.25
30.9	1203.25
31	1256.5
31.1	1272.25
31.2	1312
31.3	1329.25
31.4	1287.5
31.5	1290.75
31.6	1195.25
31.7	1111.75
31.8	1040
31.9	1097
32	1113.25
32.1	1077.5
32.2	1044.25
32.3	1076
32.4	1054.25
32.5	994.75
32.6	981.75
32.7	955.75
32.8	982
32.9	1016.25
33	998.75
33.1	987.5
33.2	970
33.3	969.5
33.4	977.5
33.5	973.25
33.6	965
33.7	982.25
33.8	1027.25
33.9	1012.25
34	1017.5
34.1	958.5
34.2	983.75
34.3	1070.75
34.4	1175
34.5	1324.75
34.6	1438.25
34.7	1456.75
34.8	1509
34.9	1694
35	1713.5
35.1	1520.5
35.2	1332.25
35.3	1193.5
35.4	1174.5
35.5	1177.75
35.6	1092
35.7	1060.25
35.8	1085.75
35.9	1199.25
36	1345.5
36.1	1278
36.2	1121.75
36.3	1136
36.4	1198.75
36.5	1344.75
36.6	1356.5
36.7	1205.25
36.8	1158
36.9	1113
37	1046.25
37.1	1087.75
37.2	1078.5
37.3	1121
37.4	1090.75
37.5	1215.75
37.6	1218.25
37.7	1266.5
37.8	1201.25
37.9	1109.5
38	1052.5
38.1	1036.75
38.2	987.25
38.3	947
38.4	900.75
38.5	885.75
38.6	884
38.7	917.25
38.8	965
38.9	965.75
39	913.75
39.1	922
39.2	977.25
39.3	1138.75
39.4	1478.25
39.5	1519
39.6	1224.25
39.7	1008.25
39.8	999
39.9	990.5
40	1024
40.1	1040.75
40.2	1079
40.3	1071.25
40.4	1008.75
40.5	947.75
40.6	986.75
40.7	1033
40.8	1027.5
40.9	1016.25
41	1016.5
41.1	1013.75
41.2	1012.75
41.3	987.75
41.4	969.5
41.5	917
41.6	914.75
41.7	906.25
41.8	956.75
41.9	986
42	983.5
42.1	1012.75
42.2	1052.75
42.3	1110.25
42.4	1250.5
42.5	1184.75
42.6	1102
42.7	1040.5
42.8	985.25
42.9	925.5
43	965.5
43.1	1128
43.2	1239.25
43.3	1168.5
43.4	1033.75
43.5	983.25
43.6	1003.25
43.7	954.5
43.8	948
43.9	891.5
44	934.25