Folder: Linux_class/xrd_output/random_files (part 11)

File: 2M1-std-40.TXT
Sample
Comments
Filename	C:\WINDMAX\DATA\USERS\GEO\GEO_ER~1\Pyrenees\BULKMA~1\2M1-std2.raw
Goniometer	Ultima IV In-plane
Attachment	Auto sample changer (10 samples)
ScanningMode	2Theta/Theta
ScanningType	Continuos Scanning
X-Ray	40kV/44mA
DivSlit	2/3deg.
DivH.L.Slit	10mm
SctSlit	2/3deg.
RecSlit	0.3mm
Start	16
Stop	44
Step	0.02
Speed	0.3
Offset	0
  16.000  610.931
  16.100  746.494
  16.200  713.993
  16.300  581.057
  16.400  742.213
  16.500  568.067
  16.600  556.053
  16.700  556.925
  16.800  536.058
  16.900  600.397
  17.000  757.618
  17.100  556.748
  17.200  736.872
  17.300  635.215
  17.400  631.925
  17.500  649.820
  17.600  736.464
  17.700  860.395
  17.800 1198.549
  17.900 1241.103
  18.000 1253.780
  18.100 1241.600
  18.200  940.103
  18.300  826.134
  18.400  801.184
  18.500  693.771
  18.600  829.114
  18.700  657.127
  18.800  735.581
  18.900  818.023
  19.000  737.804
  19.100  705.887
  19.200  838.206
  19.300  769.933
  19.400  891.048
  19.500  811.252
  19.600  928.553
  19.700 1189.705
  19.800 1599.972
  19.900 2243.648
  20.000 2667.936
  20.100 2276.798
  20.200 1601.678
  20.300 1227.249
  20.400 1099.535
  20.500  998.241
  20.600 1093.665
  20.700 1230.357
  20.800 1151.087
  20.900 1222.444
  21.000  920.482
  21.100  668.748
  21.200  712.480
  21.300  774.256
  21.400  816.504
  21.500  919.841
  21.600 1019.713
  21.700 1075.979
  21.800  960.879
  21.900  937.887
  22.000  892.706
  22.100  772.034
  22.200  820.954
  22.300  779.873
  22.400  920.526
  22.500  925.525
  22.600  888.998
  22.700  930.905
  22.800 1091.024
  22.900 1137.032
  23.000 1643.673
  23.100 1526.866
  23.200 1295.904
  23.300  912.911
  23.400  851.252
  23.500  815.889
  23.600  998.498
  23.700  986.557
  23.800 1223.239
  23.900 1409.145
  24.000 1703.261
  24.100 1529.078
  24.200 1399.612
  24.300 1094.119
  24.400  975.219
  24.500  724.936
  24.600  919.660
  24.700  914.541
  24.800  891.747
  24.900  829.198
  25.000  986.598
  25.100  995.357
  25.200 1123.519
  25.300 1093.046
  25.400 1069.681
  25.500 1467.375
  25.600 1688.164
  25.700 1616.646
  25.800 1277.473
  25.900  935.163
  26.000  789.569
  26.100  901.271
  26.200  932.402
  26.300  823.361
  26.400  956.815
  26.500 1097.542
  26.600 1462.524
  26.700 1908.446
  26.800 2160.845
  26.900 2370.186
  27.000 1774.510
  27.100 1463.195
  27.200 1078.151
  27.300  913.359
  27.400  926.360
  27.500  998.681
  27.600 1051.883
  27.700  959.871
  27.800 1174.708
  27.900 1417.059
  28.000 1614.577
  28.100 1419.617
  28.200 1204.684
  28.300 1082.424
  28.400  918.752
  28.500  851.386
  28.600  866.583
  28.700 1028.336
  28.800 1003.264
  28.900  941.858
  29.000  923.136
  29.100  767.618
  29.200  880.175
  29.300  643.701
  29.400  672.192
  29.500  856.854
  29.600  828.015
  29.700  888.803
  29.800  967.007
  29.900 1383.100
  30.000 1422.586
  30.100 1377.894
  30.200 1082.600
  30.300  923.714
  30.400  900.911
  30.500  691.955
  30.600  768.083
  30.700  703.903
  30.800  789.692
  30.900  692.854
  31.000  891.198
  31.100  893.327
  31.200 1109.786
  31.300 1337.766
  31.400 1656.212
  31.500 1426.105
  31.600 1373.450
  31.700 1518.984
  31.800 1314.031
  31.900 1111.841
  32.000 1068.356
  32.100 1065.848
  32.200 1126.550
  32.300 1088.439
  32.400  943.634
  32.500  867.269
  32.600  640.356
  32.700  642.510
  32.800  584.706
  32.900  817.560
  33.000  745.632
  33.100  648.447
  33.200  685.960
  33.300  550.978
  33.400  562.396
  33.500  716.522
  33.600  703.413
  33.700  576.841
  33.800  727.423
  33.900  560.918
  34.000  715.564
  34.100  816.669
  34.200  856.541
  34.300  687.768
  34.400  811.346
  34.500  883.026
  34.600 1056.836
  34.700 1598.449
  34.800 1778.405
  34.900 1728.012
  35.000 2051.622
  35.100 2545.283
  35.200 2865.394
  35.300 2214.749
  35.400 1491.555
  35.500  925.050
  35.600  850.439
  35.700  713.003
  35.800  877.096
  35.900  947.099
  36.000  735.537
  36.100  885.530
  36.200  932.212
  36.300  843.876
  36.400  861.288
  36.500  977.533
  36.600 1100.988
  36.700  970.310
  36.800 1013.518
  36.900 1095.489
  37.000  843.061
  37.100  878.372
  37.200  899.477
  37.300  871.266
  37.400  859.607
  37.500  742.411
  37.600  868.649
  37.700 1123.066
  37.800 1241.344
  37.900 1077.643
  38.000 1242.261
  38.100  953.244
  38.200  919.672
  38.300  757.194
  38.400  741.166
  38.500  718.009
  38.600  646.531
  38.700  648.710
  38.800  704.872
  38.900  517.897
  39.000  673.558
  39.100  696.265
  39.200  688.271
  39.300  490.318
  39.400  676.912
  39.500  640.208
  39.600  705.701
  39.700  539.983
  39.800  741.202
  39.900  565.338
  40.000  540.907
  40.100  763.205
  40.200  819.789
  40.300  908.141
  40.400  957.179
  40.500  882.710
  40.600  836.545
  40.700  862.481
  40.800  808.363
  40.900  953.353
  41.000  965.098
  41.100  712.179
  41.200  707.502
  41.300  716.656
  41.400  715.264
  41.500  902.077
  41.600  766.472
  41.700  669.183
  41.800  692.285
  41.900  765.043
  42.000  781.062
  42.100  863.952
  42.200  910.976
  42.300  897.889
  42.400 1041.247
  42.500 1174.899
  42.600 1112.026
  42.700  956.183
  42.800  738.553
  42.900  688.854
  43.000  737.140
  43.100  511.098
  43.200  687.390
  43.300  674.916
  43.400  670.005
  43.500  442.264
  43.600  517.462
  43.700  583.652
  43.800  573.290
  43.900  540.271
  44.000  588.982

File: 2M1-std-41.TXT
Sample
Comments
Filename	C:\WINDMAX\DATA\USERS\GEO\GEO_ER~1\Pyrenees\BULKMA~1\2M1-std2.raw
Goniometer	Ultima IV In-plane
Attachment	Auto sample changer (10 samples)
ScanningMode	2Theta/Theta
ScanningType	Continuos Scanning
X-Ray	40kV/44mA
DivSlit	2/3deg.
DivH.L.Slit	10mm
SctSlit	2/3deg.
RecSlit	0.3mm
Start	16
Stop	44
Step	0.02
Speed	0.3
Offset	0
  16.000  646.008
  16.100  766.960
  16.200  632.593
  16.300  629.763
  16.400  634.022
  16.500  546.571
  16.600  711.708
  16.700  630.631
  16.800  760.693
  16.900  597.633
  17.000  670.605
  17.100  566.159
  17.200  577.308
  17.300  728.445
  17.400  791.143
  17.500  712.354
  17.600  678.520
  17.700 1031.293
  17.800 1109.087
  17.900 1300.754
  18.000 1421.050
  18.100 1187.472
  18.200  883.733
  18.300  894.792
  18.400  730.137
  18.500  626.081
  18.600  634.755
  18.700  840.974
  18.800  880.600
  18.900  626.747
  19.000  589.512
  19.100  782.349
  19.200  714.496
  19.300  877.749
  19.400  636.515
  19.500  858.543
  19.600  863.911
  19.700 1266.181
  19.800 1465.318
  19.900 2083.889
  20.000 2770.335
  20.100 2235.119
  20.200 1476.644
  20.300 1102.853
  20.400 1022.400
  20.500  947.967
  20.600 1085.330
  20.700 1051.299
  20.800 1284.982
  20.900 1111.412
  21.000  947.754
  21.100  779.119
  21.200  866.829
  21.300  781.423
  21.400  729.140
  21.500  853.703
  21.600 1015.619
  21.700  986.806
  21.800 1060.435
  21.900  991.949
  22.000  789.122
  22.100  824.031
  22.200  723.127
  22.300  704.007
  22.400  927.949
  22.500  914.222
  22.600  940.837
  22.700  885.653
  22.800 1119.532
  22.900 1260.882
  23.000 1607.447
  23.100 1558.602
  23.200 1266.129
  23.300 1046.292
  23.400  863.889
  23.500  796.792
  23.600  834.949
  23.700 1050.703
  23.800 1057.155
  23.900 1311.086
  24.000 1520.682
  24.100 1400.538
  24.200 1312.877
  24.300 1140.007
  24.400  839.108
  24.500  815.126
  24.600  816.013
  24.700  935.413
  24.800  768.277
  24.900  894.109
  25.000  994.159
  25.100 1077.896
  25.200  987.492
  25.300 1125.296
  25.400 1132.433
  25.500 1433.204
  25.600 1805.903
  25.700 1562.740
  25.800 1383.108
  25.900 1020.365
  26.000  839.521
  26.100  902.170
  26.200  949.901
  26.300  804.032
  26.400 1066.197
  26.500 1082.298
  26.600 1340.925
  26.700 1932.702
  26.800 2216.074
  26.900 2450.973
  27.000 1934.438
  27.100 1326.077
  27.200  980.076
  27.300  906.921
  27.400 1023.950
  27.500  861.070
  27.600  857.472
  27.700 1097.977
  27.800 1277.076
  27.900 1430.791
  28.000 1596.899
  28.100 1525.251
  28.200 1152.052
  28.300 1077.842
  28.400  832.027
  28.500  982.606
  28.600  992.956
  28.700  947.829
  28.800  975.164
  28.900  970.446
  29.000  743.533
  29.100  780.146
  29.200  664.196
  29.300  610.657
  29.400  674.992
  29.500  708.330
  29.600  761.839
  29.700  991.033
  29.800 1104.937
  29.900 1444.930
  30.000 1606.765
  30.100 1501.998
  30.200 1206.688
  30.300  921.356
  30.400  849.680
  30.500  804.668
  30.600  814.625
  30.700  666.306
  30.800  849.485
  30.900  829.621
  31.000  777.120
  31.100 1065.070
  31.200 1254.840
  31.300 1516.364
  31.400 1473.457
  31.500 1420.445
  31.600 1362.383
  31.700 1312.440
  31.800 1441.555
  31.900 1266.911
  32.000 1053.970
  32.100 1138.102
  32.200 1047.044
  32.300 1102.212
  32.400  831.395
  32.500  850.306
  32.600  713.712
  32.700  763.608
  32.800  626.947
  32.900  695.964
  33.000  674.415
  33.100  567.289
  33.200  627.380
  33.300  635.673
  33.400  597.844
  33.500  664.589
  33.600  558.752
  33.700  701.019
  33.800  734.835
  33.900  558.067
  34.000  601.352
  34.100  833.570
  34.200  726.719
  34.300  679.633
  34.400  910.352
  34.500  931.422
  34.600 1068.006
  34.700 1565.893
  34.800 1693.103
  34.900 1886.651
  35.000 2024.917
  35.100 2669.840
  35.200 2685.326
  35.300 2072.840
  35.400 1424.643
  35.500 1115.563
  35.600  865.567
  35.700  689.317
  35.800  893.016
  35.900  743.135
  36.000  898.123
  36.100  858.656
  36.200  924.039
  36.300  757.060
  36.400  785.015
  36.500  964.503
  36.600  985.922
  36.700 1180.963
  36.800 1104.233
  36.900  848.157
  37.000  975.240
  37.100  807.545
  37.200  665.060
  37.300  768.259
  37.400  935.393
  37.500  932.076
  37.600  924.820
  37.700 1082.621
  37.800 1111.508
  37.900 1294.909
  38.000 1154.324
  38.100 1102.334
  38.200  773.492
  38.300  716.419
  38.400  874.072
  38.500  617.556
  38.600  508.497
  38.700  547.232
  38.800  699.842
  38.900  541.484
  39.000  725.636
  39.100  553.472
  39.200  751.428
  39.300  737.936
  39.400  595.176
  39.500  559.667
  39.600  637.463
  39.700  524.803
  39.800  586.520
  39.900  545.431
  40.000  799.297
  40.100  874.038
  40.200  954.406
  40.300  901.356
  40.400  969.546
  40.500  918.704
  40.600  886.733
  40.700  668.299
  40.800  850.168
  40.900  806.820
  41.000  874.730
  41.100  730.180
  41.200  875.943
  41.300  842.498
  41.400  803.669
  41.500  858.434
  41.600  779.073
  41.700  818.493
  41.800  549.854
  41.900  732.831
  42.000  746.176
  42.100  882.650
  42.200 1015.572
  42.300  903.327
  42.400  995.627
  42.500  951.406
  42.600  981.875
  42.700  895.974
  42.800  730.998
  42.900  793.836
  43.000  669.507
  43.100  554.014
  43.200  554.853
  43.300  460.924
  43.400  583.030
  43.500  461.172
  43.600  642.309
  43.700  444.717
  43.800  682.108
  43.900  676.902
  44.000  671.932

File: 2M1-std-42.TXT
Sample
Comments
Filename	C:\WINDMAX\DATA\USERS\GEO\GEO_ER~1\Pyrenees\BULKMA~1\2M1-std2.raw
Goniometer	Ultima IV In-plane
Attachment	Auto sample changer (10 samples)
ScanningMode	2Theta/Theta
ScanningType	Continuos Scanning
X-Ray	40kV/44mA
DivSlit	2/3deg.
DivH.L.Slit	10mm
SctSlit	2/3deg.
RecSlit	0.3mm
Start	16
Stop	44
Step	0.02
Speed	0.3
Offset	0
  16.000  789.745
  16.100  849.681
  16.200  762.998
  16.300  632.704
  16.400  542.347
  16.500  639.077
  16.600  630.605
  16.700  669.520
  16.800  783.152
  16.900  529.972
  17.000  758.637
  17.100  710.154
  17.200  721.699
  17.300  624.879
  17.400  686.565
  17.500  820.171
  17.600  836.833
  17.700  834.566
  17.800 1152.437
  17.900 1248.969
  18.000 1267.792
  18.100 1109.916
  18.200  836.895
  18.300  727.443
  18.400  876.137
  18.500  818.854
  18.600  665.519
  18.700  813.878
  18.800  840.025
  18.900  648.829
  19.000  621.358
  19.100  719.011
  19.200  754.094
  19.300  792.578
  19.400  708.254
  19.500  696.133
  19.600  912.933
  19.700 1137.639
  19.800 1619.359
  19.900 2145.174
  20.000 2685.474
  20.100 2374.798
  20.200 1625.316
  20.300 1268.743
  20.400 1170.231
  20.500 1042.222
  20.600  914.453
  20.700 1237.353
  20.800 1236.223
  20.900 1019.253
  21.000  868.799
  21.100  896.598
  21.200  857.009
  21.300  730.184
  21.400  871.872
  21.500  842.675
  21.600  952.098
  21.700 1170.261
  21.800 1128.980
  21.900  878.976
  22.000  809.595
  22.100  921.861
  22.200  752.195
  22.300  757.790
  22.400  921.585
  22.500  866.250
  22.600  821.363
  22.700  846.366
  22.800  998.600
  22.900 1286.583
  23.000 1592.086
  23.100 1679.434
  23.200 1399.622
  23.300 1096.845
  23.400  776.299
  23.500  872.374
  23.600  905.129
  23.700  948.601
  23.800 1128.176
  23.900 1478.453
  24.000 1465.406
  24.100 1569.593
  24.200 1205.839
  24.300 1162.239
  24.400  938.156
  24.500  824.132
  24.600  711.877
  24.700  864.104
  24.800  928.520
  24.900  850.037
  25.000  933.546
  25.100 1115.155
  25.200 1183.481
  25.300 1045.695
  25.400 1113.662
  25.500 1326.277
  25.600 1597.100
  25.700 1559.943
  25.800 1325.186
  25.900  939.697
  26.000 1008.878
  26.100  898.108
  26.200  739.765
  26.300  841.410
  26.400 1030.948
  26.500 1125.297
  26.600 1377.362
  26.700 1888.091
  26.800 2254.255
  26.900 2362.180
  27.000 1908.873
  27.100 1463.801
  27.200 1175.250
  27.300  986.996
  27.400  866.268
  27.500  937.057
  27.600  935.700
  27.700 1034.288
  27.800 1046.003
  27.900 1393.560
  28.000 1689.399
  28.100 1508.496
  28.200 1307.747
  28.300  947.063
  28.400 1004.226
  28.500  971.288
  28.600  900.329
  28.700  873.736
  28.800  953.178
  28.900  838.325
  29.000  739.384
  29.100  966.219
  29.200  664.000
  29.300  737.606
  29.400  827.838
  29.500  860.010
  29.600  835.601
  29.700  863.198
  29.800 1028.228
  29.900 1387.566
  30.000 1512.820
  30.100 1437.750
  30.200 1162.990
  30.300  973.950
  30.400  837.327
  30.500  817.421
  30.600  628.710
  30.700  729.670
  30.800  844.615
  30.900  649.865
  31.000  951.407
  31.100  958.588
  31.200 1048.784
  31.300 1326.360
  31.400 1464.845
  31.500 1378.752
  31.600 1493.046
  31.700 1436.375
  31.800 1347.070
  31.900 1279.253
  32.000  940.991
  32.100 1221.383
  32.200 1179.371
  32.300 1057.624
  32.400  873.439
  32.500  841.622
  32.600  639.630
  32.700  592.773
  32.800  784.349
  32.900  605.278
  33.000  704.511
  33.100  685.303
  33.200  633.542
  33.300  690.457
  33.400  522.977
  33.500  607.773
  33.600  613.377
  33.700  662.989
  33.800  800.246
  33.900  744.745
  34.000  636.046
  34.100  665.118
  34.200  717.355
  34.300  715.090
  34.400  860.028
  34.500  798.475
  34.600 1236.519
  34.700 1414.295
  34.800 1706.057
  34.900 1861.655
  35.000 2150.178
  35.100 2781.365
  35.200 2879.185
  35.300 2029.653
  35.400 1504.734
  35.500  942.504
  35.600  978.597
  35.700  714.152
  35.800  717.271
  35.900  768.027
  36.000  906.473
  36.100  787.805
  36.200  982.491
  36.300  930.770
  36.400  813.672
  36.500 1068.886
  36.600 1057.546
  36.700  992.964
  36.800 1092.363
  36.900 1031.632
  37.000  926.882
  37.100  826.262
  37.200  865.094
  37.300  715.422
  37.400  838.190
  37.500  863.186
  37.600  987.281
  37.700 1056.553
  37.800 1111.938
  37.900 1302.524
  38.000 1174.876
  38.100  959.400
  38.200  764.315
  38.300  903.086
  38.400  822.152
  38.500  636.637
  38.600  542.043
  38.700  543.533
  38.800  511.163
  38.900  639.906
  39.000  701.383
  39.100  481.934
  39.200  524.788
  39.300  531.548
  39.400  519.702
  39.500  614.008
  39.600  666.787
  39.700  752.332
  39.800  522.388
  39.900  547.179
  40.000  792.777
  40.100  684.390
  40.200  804.407
  40.300  765.768
  40.400  851.301
  40.500  917.358
  40.600  891.275
  40.700  784.149
  40.800  838.430
  40.900  832.678
  41.000  950.130
  41.100  731.448
  41.200  678.593
  41.300  894.790
  41.400  674.200
  41.500  687.267
  41.600  765.489
  41.700  634.958
  41.800  548.741
  41.900  678.502
  42.000  704.769
  42.100  923.099
  42.200  813.525
  42.300  917.639
  42.400 1035.981
  42.500  922.290
  42.600  932.471
  42.700  937.977
  42.800  813.349
  42.900  765.323
  43.000  675.458
  43.100  590.691
  43.200  634.109
  43.300  533.726
  43.400  609.498
  43.500  552.559
  43.600  563.423
  43.700  456.046
  43.800  514.097
  43.900  701.330
  44.000  562.674

File: 2M1-std-43.TXT
Sample
Comments
Filename	C:\WINDMAX\DATA\USERS\GEO\GEO_ER~1\Pyrenees\BULKMA~1\2M1-std2.raw
Goniometer	Ultima IV In-plane
Attachment	Auto sample changer (10 samples)
ScanningMode	2Theta/Theta
ScanningType	Continuos Scanning
X-Ray	40kV/44mA
DivSlit	2/3deg.
DivH.L.Slit	10mm
SctSlit	2/3deg.
RecSlit	0.3mm
Start	16
Stop	44
Step	0.02
Speed	0.3
Offset	0
  16.000  588.366
  16.100  627.911
  16.200  697.554
  16.300  634.527
  16.400  692.125
  16.500  683.449
  16.600  644.908
  16.700  534.196
  16.800  694.755
  16.900  631.360
  17.000  717.578
  17.100  742.957
  17.200  764.455
  17.300  611.719
  17.400  764.824
  17.500  586.469
  17.600  686.465
  17.700  938.603
  17.800 1105.284
  17.900 1409.490
  18.000 1390.230
  18.100 1099.158
  18.200  945.625
  18.300  767.055
  18.400  776.503
  18.500  618.755
  18.600  731.054
  18.700  804.984
  18.800  854.675
  18.900  698.817
  19.000  695.150
  19.100  637.979
  19.200  797.406
  19.300  708.857
  19.400  655.811
  19.500  828.065
  19.600  914.547
  19.700 1262.952
  19.800 1624.649
  19.900 2297.954
  20.000 2618.527
  20.100 2446.972
  20.200 1609.162
  20.300 1279.979
  20.400 1209.770
  20.500  922.100
  20.600  943.637
  20.700 1216.093
  20.800 1294.627
  20.900 1007.587
  21.000  963.456
  21.100  723.474
  21.200  804.346
  21.300  790.335
  21.400  831.303
  21.500  948.006
  21.600  994.745
  21.700  988.530
  21.800  938.264
  21.900  962.400
  22.000  768.783
  22.100  831.384
  22.200  753.543
  22.300  901.197
  22.400  813.665
  22.500  887.374
  22.600  789.835
  22.700  864.111
  22.800  979.024
  22.900 1310.869
  23.000 1662.630
  23.100 1723.043
  23.200 1439.553
  23.300  998.272
  23.400  871.488
  23.500  789.503
  23.600 1043.641
  23.700  880.890
  23.800 1178.652
  23.900 1482.335
  24.000 1529.054
  24.100 1458.538
  24.200 1196.414
  24.300 1051.359
  24.400  932.910
  24.500  737.588
  24.600  785.868
  24.700  924.809
  24.800  832.417
  24.900  890.225
  25.000  862.755
  25.100 1131.015
  25.200  961.823
  25.300 1163.907
  25.400 1079.670
  25.500 1390.034
  25.600 1564.901
  25.700 1713.064
  25.800 1417.404
  25.900 1123.170
  26.000  996.899
  26.100  920.126
  26.200  837.514
  26.300  953.067
  26.400  893.422
  26.500 1187.294
  26.600 1468.291
  26.700 1880.243
  26.800 2324.622
  26.900 2310.684
  27.000 1924.075
  27.100 1351.068
  27.200  992.470
  27.300  857.053
  27.400  933.413
  27.500  992.877
  27.600 1028.051
  27.700 1001.835
  27.800 1216.392
  27.900 1332.058
  28.000 1810.498
  28.100 1526.091
  28.200 1203.123
  28.300 1161.725
  28.400  937.647
  28.500  859.080
  28.600  815.036
  28.700  877.708
  28.800  965.634
  28.900  998.310
  29.000  963.735
  29.100  861.822
  29.200  649.196
  29.300  786.085
  29.400  847.889
  29.500  805.276
  29.600  725.407
  29.700 1017.675
  29.800 1022.369
  29.900 1453.005
  30.000 1486.593
  30.100 1378.432
  30.200 1149.013
  30.300  919.288
  30.400  678.490
  30.500  677.894
  30.600  717.228
  30.700  714.867
  30.800  658.104
  30.900  758.513
  31.000  940.032
  31.100  953.690
  31.200 1077.108
  31.300 1318.176
  31.400 1504.642
  31.500 1587.363
  31.600 1599.063
  31.700 1448.415
  31.800 1283.021
  31.900 1062.798
  32.000  992.991
  32.100 1215.708
  32.200 1110.211
  32.300 1169.806
  32.400  735.547
  32.500  857.339
  32.600  789.986
  32.700  677.457
  32.800  767.076
  32.900  627.779
  33.000  688.814
  33.100  803.919
  33.200  576.116
  33.300  524.085
  33.400  765.497
  33.500  570.834
  33.600  677.074
  33.700  698.565
  33.800  765.690
  33.900  660.956
  34.000  599.022
  34.100  829.152
  34.200  775.332
  34.300  649.310
  34.400  858.532
  34.500  911.856
  34.600 1225.618
  34.700 1612.213
  34.800 1681.201
  34.900 1864.452
  35.000 2119.594
  35.100 2587.519
  35.200 2919.617
  35.300 2014.059
  35.400 1382.389
  35.500  998.049
  35.600 1013.257
  35.700  871.473
  35.800  884.862
  35.900  908.764
  36.000  765.123
  36.100  810.062
  36.200  840.501
  36.300  747.905
  36.400  859.276
  36.500 1085.169
  36.600 1106.837
  36.700 1012.561
  36.800  941.239
  36.900  967.515
  37.000  871.370
  37.100  747.467
  37.200  694.249
  37.300  748.436
  37.400  726.262
  37.500  941.668
  37.600  897.911
  37.700 1122.240
  37.800 1085.513
  37.900 1148.147
  38.000 1185.040
  38.100  887.468
  38.200  788.246
  38.300  914.659
  38.400  830.204
  38.500  821.706
  38.600  747.510
  38.700  504.773
  38.800  719.080
  38.900  488.093
  39.000  554.966
  39.100  609.402
  39.200  738.400
  39.300  684.581
  39.400  504.803
  39.500  575.835
  39.600  733.583
  39.700  525.354
  39.800  641.453
  39.900  585.076
  40.000  653.554
  40.100  892.721
  40.200  748.288
  40.300  942.416
  40.400  765.561
  40.500  874.562
  40.600  762.245
  40.700  711.028
  40.800  701.491
  40.900  954.559
  41.000  731.965
  41.100  946.209
  41.200  830.592
  41.300  706.449
  41.400  673.838
  41.500  644.834
  41.600  777.528
  41.700  761.294
  41.800  619.474
  41.900  813.523
  42.000  785.916
  42.100  768.905
  42.200  793.752
  42.300  899.294
  42.400  975.815
  42.500 1147.115
  42.600 1111.324
  42.700  995.554
  42.800  902.650
  42.900  670.620
  43.000  673.893
  43.100  620.559
  43.200  437.665
  43.300  476.323
  43.400  656.416
  43.500  513.917
  43.600  487.029
  43.700  478.196
  43.800  572.498
  43.900  608.827
  44.000  609.034