Folder: Linux_class/xrd_output/random_files (part 2)

File: 2M1-std-4.TXT
Sample
Comments
Filename	C:\WINDMAX\DATA\USERS\GEO\GEO_ER~1\Pyrenees\BULKMA~1\2M1-std2.raw
Goniometer	Ultima IV In-plane
Attachment	Auto sample changer (10 samples)
ScanningMode	2Theta/Theta
ScanningType	Continuos Scanning
X-Ray	40kV/44mA
DivSlit	2/3deg.
DivH.L.Slit	10mm
SctSlit	2/3deg.
RecSlit	0.3mm
Start	16
Stop	44
Step	0.02
Speed	0.3
Offset	0
  16.000  606.179
  16.100  604.623
  16.200  695.928
  16.300  538.152
  16.400  730.341
  16.500  604.657
  16.600  527.057
  16.700  576.413
  16.800  738.351
  16.900  546.691
  17.000  641.137
  17.100  690.928
  17.200  660.444
  17.300  550.074
  17.400  708.099
  17.500  830.592
  17.600  907.880
  17.700 1012.928
  17.800 1102.950
  17.900 1361.739
  18.000 1341.150
  18.100 1237.077
  18.200 1045.541
  18.300  853.844
  18.400  636.063
  18.500  773.129
  18.600  824.161
  18.700  787.618
  18.800  634.792
  18.900  755.304
  19.000  591.013
  19.100  618.567
  19.200  649.441
  19.300  697.294
  19.400  777.296
  19.500  837.396
  19.600  995.224
  19.700 1273.510
  19.800 1565.849
  19.900 2177.765
  20.000 2752.841
  20.100 2345.687
  20.200 1543.902
  20.300 1267.545
  20.400 1010.551
  20.500 1036.892
  20.600  875.273
  20.700 1087.733
  20.800 1345.258
  20.900 1164.812
  21.000  870.548
  21.100  706.232
  21.200  742.916
  21.300  793.896
  21.400  939.988
  21.500  981.957
  21.600 1109.301
  21.700 1006.862
  21.800  971.739
  21.900  814.988
  22.000  954.624
  22.100  892.605
  22.200  914.647
  22.300  896.102
  22.400  868.047
  22.500 1036.204
  22.600  870.073
  22.700 1049.933
  22.800 1002.163
  22.900 1153.119
  23.000 1582.443
  23.100 1624.552
  23.200 1254.556
  23.300 1088.685
  23.400  992.117
  23.500  985.766
  23.600  877.707
  23.700  887.743
  23.800 1254.317
  23.900 1453.611
  24.000 1683.401
  24.100 1532.213
  24.200 1268.338
  24.300  982.629
  24.400  870.041
  24.500  796.711
  24.600  740.432
  24.700  778.517
  24.800  741.223
  24.900  971.281
  25.000  827.721
  25.100 1118.356
  25.200 1173.459
  25.300 1239.470
  25.400 1298.182
  25.500 1429.690
  25.600 1681.573
  25.700 1546.389
  25.800 1336.758
  25.900 1023.453
  26.000  903.002
  26.100  764.934
  26.200  832.360
  26.300  885.903
  26.400 1024.868
  26.500 1245.249
  26.600 1408.574
  26.700 1860.355
  26.800 2269.344
  26.900 2250.156
  27.000 1949.484
  27.100 1393.503
  27.200 1121.515
  27.300  927.456
  27.400  897.099
  27.500 1024.682
  27.600  989.109
  27.700  943.870
  27.800 1243.892
  27.900 1515.817
  28.000 1617.486
  28.100 1456.886
  28.200 1128.852
  28.300  984.672
  28.400  871.162
  28.500  949.741
  28.600  827.934
  28.700 1052.848
  28.800 1026.650
  28.900 1012.223
  29.000  776.264
  29.100  922.467
  29.200  770.241
  29.300  691.431
  29.400  697.348
  29.500  609.760
  29.600  807.843
  29.700  931.085
  29.800  987.927
  29.900 1418.530
  30.000 1509.628
  30.100 1485.933
  30.200 1027.643
  30.300  862.096
  30.400  823.492
  30.500  719.264
  30.600  798.077
  30.700  636.102
  30.800  840.744
  30.900  694.969
  31.000  756.327
  31.100  985.185
  31.200 1266.614
  31.300 1485.758
  31.400 1681.218
  31.500 1575.662
  31.600 1593.156
  31.700 1529.023
  31.800 1338.518
  31.900 1086.391
  32.000 1113.336
  32.100 1127.592
  32.200 1176.358
  32.300 1082.825
  32.400  761.465
  32.500  821.643
  32.600  619.278
  32.700  772.775
  32.800  623.049
  32.900  636.937
  33.000  797.149
  33.100  749.175
  33.200  628.493
  33.300  542.731
  33.400  580.285
  33.500  722.991
  33.600  721.305
  33.700  542.710
  33.800  593.947
  33.900  587.876
  34.000  655.974
  34.100  666.437
  34.200  839.319
  34.300  819.654
  34.400  881.428
  34.500  774.036
  34.600 1039.440
  34.700 1459.467
  34.800 1809.215
  34.900 1715.818
  35.000 2153.299
  35.100 2642.856
  35.200 2857.843
  35.300 1975.790
  35.400 1307.062
  35.500  972.431
  35.600  831.983
  35.700  915.928
  35.800  879.449
  35.900  727.319
  36.000  849.017
  36.100  793.320
  36.200  951.055
  36.300  926.591
  36.400  998.486
  36.500  928.502
  36.600 1000.751
  36.700 1057.164
  36.800 1087.828
  36.900  872.630
  37.000  879.967
  37.100  680.086
  37.200  643.476
  37.300  638.982
  37.400  787.382
  37.500  979.978
  37.600  996.101
  37.700 1125.364
  37.800 1234.285
  37.900 1247.259
  38.000 1278.467
  38.100 1017.907
  38.200  963.941
  38.300  740.555
  38.400  850.809
  38.500  695.705
  38.600  628.549
  38.700  617.355
  38.800  717.576
  38.900  476.524
  39.000  559.407
  39.100  541.148
  39.200  651.011
  39.300  477.159
  39.400  511.399
  39.500  628.268
  39.600  699.385
  39.700  553.397
  39.800  563.167
  39.900  726.341
  40.000  654.408
  40.100  753.797
  40.200  976.634
  40.300  980.232
  40.400  777.519
  40.500  902.339
  40.600  787.297
  40.700  758.607
  40.800  893.818
  40.900  848.406
  41.000  956.828
  41.100  798.887
  41.200  725.764
  41.300  640.632
  41.400  667.345
  41.500  774.624
  41.600  669.310
  41.700  747.243
  41.800  740.155
  41.900  767.538
  42.000  848.692
  42.100  911.967
  42.200 1051.082
  42.300  998.563
  42.400 1012.533
  42.500 1114.341
  42.600 1157.522
  42.700 1031.654
  42.800  873.536
  42.900  673.057
  43.000  578.479
  43.100  491.584
  43.200  547.709
  43.300  555.636
  43.400  589.501
  43.500  460.600
  43.600  660.879
  43.700  515.136
  43.800  635.095
  43.900  705.676
  44.000  514.910

File: 2M1-std-5.TXT
Sample
Comments
Filename	C:\WINDMAX\DATA\USERS\GEO\GEO_ER~1\Pyrenees\BULKMA~1\2M1-std2.raw
Goniometer	Ultima IV In-plane
Attachment	Auto sample changer (10 samples)
ScanningMode	2Theta/Theta
ScanningType	Continuos Scanning
X-Ray	40kV/44mA
DivSlit	2/3deg.
DivH.L.Slit	10mm
SctSlit	2/3deg.
RecSlit	0.3mm
Start	16
Stop	44
Step	0.02
Speed	0.3
Offset	0
  16.000  716.851
  16.100  635.270
  16.200  788.928
  16.300  684.251
  16.400  762.259
  16.500  589.484
  16.600  726.243
  16.700  611.431
  16.800  609.196
  16.900  603.610
  17.000  677.600
  17.100  651.536
  17.200  693.349
  17.300  781.021
  17.400  656.465
  17.500  767.127
  17.600  673.714
  17.700  905.773
  17.800 1132.796
  17.900 1324.344
  18.000 1204.506
  18.100 1107.975
  18.200  880.302
  18.300  877.198
  18.400  707.086
  18.500  617.627
  18.600  736.051
  18.700  805.135
  18.800  642.854
  18.900  815.579
  19.000  590.497
  19.100  574.230
  19.200  824.460
  19.300  891.130
  19.400  693.952
  19.500  866.753
  19.600 1008.279
  19.700 1033.201
  19.800 1529.677
  19.900 2100.379
  20.000 2724.544
  20.100 2438.172
  20.200 1463.640
  20.300 1101.863
  20.400 1007.921
  20.500  941.516
  20.600  906.449
  20.700  990.744
  20.800 1184.971
  20.900 1079.717
  21.000  817.229
  21.100  820.975
  21.200  771.331
  21.300  756.527
  21.400  734.898
  21.500  968.725
  21.600  995.014
  21.700 1108.233
  21.800 1060.553
  21.900  843.849
  22.000  976.378
  22.100  825.629
  22.200  671.017
  22.300  701.225
  22.400  824.241
  22.500  823.400
  22.600  911.371
  22.700  808.318
  22.800  921.606
  22.900 1292.401
  23.000 1463.085
  23.100 1565.981
  23.200 1438.553
  23.300  919.062
  23.400  806.222
  23.500  949.955
  23.600  813.214
  23.700  936.804
  23.800 1094.927
  23.900 1361.250
  24.000 1600.906
  24.100 1573.214
  24.200 1328.220
  24.300 1024.397
  24.400 1017.052
  24.500  849.766
  24.600  835.376
  24.700  920.343
  24.800  743.059
  24.900  963.133
  25.000  976.171
  25.100 1139.485
  25.200 1008.033
  25.300 1123.170
  25.400 1108.410
  25.500 1537.678
  25.600 1564.806
  25.700 1775.595
  25.800 1271.768
  25.900 1004.021
  26.000  792.154
  26.100  877.715
  26.200  966.543
  26.300  943.718
  26.400 1029.565
  26.500 1027.001
  26.600 1302.264
  26.700 1785.200
  26.800 2297.976
  26.900 2446.764
  27.000 1964.700
  27.100 1354.237
  27.200 1170.310
  27.300 1073.785
  27.400  897.733
  27.500  895.245
  27.600 1081.144
  27.700 1108.392
  27.800 1191.626
  27.900 1508.469
  28.000 1781.084
  28.100 1543.114
  28.200 1367.234
  28.300 1080.626
  28.400  875.704
  28.500  834.764
  28.600  747.521
  28.700  818.283
  28.800  985.602
  28.900  781.214
  29.000  923.932
  29.100  842.963
  29.200  791.624
  29.300  682.388
  29.400  851.600
  29.500  822.650
  29.600  876.481
  29.700  929.259
  29.800 1137.283
  29.900 1417.959
  30.000 1465.542
  30.100 1317.935
  30.200 1186.509
  30.300  906.234
  30.400  766.323
  30.500  626.424
  30.600  682.267
  30.700  811.613
  30.800  851.779
  30.900  710.217
  31.000  839.506
  31.100 1078.371
  31.200 1152.383
  31.300 1434.868
  31.400 1539.869
  31.500 1344.552
  31.600 1508.384
  31.700 1396.115
  31.800 1406.260
  31.900 1220.480
  32.000 1000.054
  32.100 1094.596
  32.200 1088.833
  32.300 1056.388
  32.400  790.286
  32.500  717.018
  32.600  700.763
  32.700  688.888
  32.800  690.159
  32.900  771.768
  33.000  642.060
  33.100  644.198
  33.200  751.467
  33.300  628.808
  33.400  606.815
  33.500  569.259
  33.600  539.040
  33.700  678.944
  33.800  636.529
  33.900  803.816
  34.000  644.625
  34.100  704.593
  34.200  745.211
  34.300  807.366
  34.400  833.531
  34.500  980.913
  34.600 1151.278
  34.700 1482.096
  34.800 1659.912
  34.900 1765.551
  35.000 1967.007
  35.100 2701.608
  35.200 2724.359
  35.300 1971.177
  35.400 1455.046
  35.500 1038.292
  35.600  784.878
  35.700  926.007
  35.800  919.036
  35.900  825.166
  36.000  846.007
  36.100  985.216
  36.200  989.325
  36.300  814.433
  36.400  833.763
  36.500  974.894
  36.600 1172.169
  36.700 1091.585
  36.800  951.522
  36.900 1072.714
  37.000  831.132
  37.100  691.801
  37.200  784.720
  37.300  643.066
  37.400  707.917
  37.500  932.557
  37.600  851.882
  37.700  922.768
  37.800 1127.768
  37.900 1191.735
  38.000 1165.410
  38.100  974.103
  38.200  931.436
  38.300  901.541
  38.400  770.136
  38.500  694.208
  38.600  721.022
  38.700  699.571
  38.800  510.725
  38.900  608.715
  39.000  680.182
  39.100  578.281
  39.200  511.211
  39.300  570.591
  39.400  524.879
  39.500  594.203
  39.600  501.725
  39.700  650.343
  39.800  744.294
  39.900  578.711
  40.000  792.278
  40.100  895.066
  40.200  753.277
  40.300  953.336
  40.400  942.634
  40.500  887.062
  40.600  745.916
  40.700  836.152
  40.800  797.479
  40.900  808.675
  41.000  749.260
  41.100  947.003
  41.200  767.008
  41.300  651.710
  41.400  786.130
  41.500  835.220
  41.600  735.667
  41.700  642.944
  41.800  759.160
  41.900  806.068
  42.000  669.168
  42.100  733.858
  42.200  953.401
  42.300  978.785
  42.400  878.184
  42.500  931.649
  42.600 1071.767
  42.700  943.556
  42.800  841.048
  42.900  790.316
  43.000  727.478
  43.100  685.810
  43.200  524.563
  43.300  454.189
  43.400  658.807
  43.500  513.224
  43.600  494.645
  43.700  472.576
  43.800  517.789
  43.900  599.341
  44.000  478.407

File: 2M1-std-6.TXT
Sample
Comments
Filename	C:\WINDMAX\DATA\USERS\GEO\GEO_ER~1\Pyrenees\BULKMA~1\2M1-std2.raw
Goniometer	Ultima IV In-plane
Attachment	Auto sample changer (10 samples)
ScanningMode	2Theta/Theta
ScanningType	Continuos Scanning
X-Ray	40kV/44mA
DivSlit	2/3deg.
DivH.L.Slit	10mm
SctSlit	2/3deg.
RecSlit	0.3mm
Start	16
Stop	44
Step	0.02
Speed	0.3
Offset	0
  16.000  806.768
  16.100  760.222
  16.200  771.518
  16.300  629.118
  16.400  647.244
  16.500  538.578
  16.600  516.583
  16.700  765.124
  16.800  776.962
  16.900  688.809
  17.000  512.248
  17.100  632.702
  17.200  616.325
  17.300  738.105
  17.400  703.396
  17.500  658.700
  17.600  855.509
  17.700  833.680
  17.800 1108.700
  17.900 1315.548
  18.000 1431.760
  18.100 1058.910
  18.200  853.944
  18.300  718.480
  18.400  652.411
  18.500  813.029
  18.600  767.877
  18.700  622.331
  18.800  827.188
  18.900  576.699
  19.000  705.377
  19.100  654.058
  19.200  816.577
  19.300  742.216
  19.400  631.595
  19.500  667.908
  19.600  959.388
  19.700 1280.229
  19.800 1548.268
  19.900 2309.148
  20.000 2755.530
  20.100 2461.185
  20.200 1385.946
  20.300 1295.120
  20.400 1004.953
  20.500  979.494
  20.600 1066.609
  20.700 1121.661
  20.800 1247.451
  20.900 1032.234
  21.000  992.231
  21.100  745.870
  21.200  842.384
  21.300  784.567
  21.400  833.549
  21.500 1016.746
  21.600 1012.685
  21.700 1179.270
  21.800 1061.039
  21.900  874.828
  22.000  878.839
  22.100  852.177
  22.200  880.457
  22.300  890.424
  22.400  844.016
  22.500  782.653
  22.600 1027.416
  22.700  821.056
  22.800  992.372
  22.900 1304.956
  23.000 1468.221
  23.100 1703.186
  23.200 1266.494
  23.300 1004.673
  23.400  796.629
  23.500  816.843
  23.600  860.500
  23.700  891.633
  23.800 1060.832
  23.900 1521.545
  24.000 1525.336
  24.100 1549.078
  24.200 1201.399
  24.300 1025.084
  24.400  927.598
  24.500  893.590
  24.600  852.006
  24.700  783.468
  24.800  800.662
  24.900  961.904
  25.000  960.668
  25.100 1120.858
  25.200 1146.086
  25.300 1251.046
  25.400 1301.544
  25.500 1342.149
  25.600 1772.641
  25.700 1545.057
  25.800 1291.013
  25.900  948.423
  26.000  802.061
  26.100  949.719
  26.200  966.313
  26.300  842.692
  26.400  932.095
  26.500 1147.277
  26.600 1282.272
  26.700 1710.558
  26.800 2360.321
  26.900 2356.520
  27.000 1750.364
  27.100 1324.120
  27.200  956.678
  27.300  950.569
  27.400  844.820
  27.500  919.618
  27.600 1075.891
  27.700  894.629
  27.800 1277.748
  27.900 1375.370
  28.000 1589.340
  28.100 1488.668
  28.200 1233.185
  28.300 1001.473
  28.400  966.298
  28.500  961.459
  28.600  878.746
  28.700  893.853
  28.800  966.809
  28.900  945.299
  29.000  858.835
  29.100  859.822
  29.200  737.992
  29.300  737.990
  29.400  779.296
  29.500  783.053
  29.600  913.900
  29.700  862.805
  29.800  944.589
  29.900 1421.300
  30.000 1594.815
  30.100 1408.515
  30.200 1135.708
  30.300  881.987
  30.400  775.444
  30.500  661.879
  30.600  708.986
  30.700  623.407
  30.800  767.969
  30.900  649.934
  31.000  698.809
  31.100  949.626
  31.200 1066.360
  31.300 1328.974
  31.400 1650.334
  31.500 1477.208
  31.600 1395.978
  31.700 1523.317
  31.800 1247.533
  31.900 1155.812
  32.000 1139.579
  32.100 1045.023
  32.200 1231.717
  32.300 1099.369
  32.400  825.256
  32.500  700.137
  32.600  654.531
  32.700  799.071
  32.800  762.013
  32.900  613.548
  33.000  722.754
  33.100  737.338
  33.200  636.565
  33.300  719.676
  33.400  734.188
  33.500  566.977
  33.600  721.739
  33.700  675.319
  33.800  554.426
  33.900  666.289
  34.000  757.308
  34.100  825.289
  34.200  824.181
  34.300  685.894
  34.400  718.373
  34.500 1004.126
  34.600 1106.188
  34.700 1455.820
  34.800 1653.920
  34.900 1889.465
  35.000 1977.702
  35.100 2747.248
  35.200 2909.916
  35.300 2076.884
  35.400 1518.353
  35.500  895.341
  35.600  986.462
  35.700  923.387
  35.800  738.466
  35.900  906.291
  36.000  796.279
  36.100  726.955
  36.200  936.301
  36.300  892.204
  36.400  784.534
  36.500  854.033
  36.600 1018.886
  36.700 1161.526
  36.800 1033.032
  36.900 1063.587
  37.000 1004.720
  37.100  935.639
  37.200  653.618
  37.300  851.588
  37.400  704.735
  37.500  814.443
  37.600  853.570
  37.700 1155.648
  37.800 1234.691
  37.900 1177.075
  38.000 1284.740
  38.100 1143.276
  38.200  947.444
  38.300  921.602
  38.400  849.088
  38.500  715.747
  38.600  664.104
  38.700  710.519
  38.800  575.442
  38.900  508.035
  39.000  554.260
  39.100  550.863
  39.200  641.923
  39.300  516.892
  39.400  626.049
  39.500  673.905
  39.600  489.646
  39.700  556.278
  39.800  632.879
  39.900  584.716
  40.000  701.062
  40.100  761.725
  40.200  868.270
  40.300  861.278
  40.400  758.724
  40.500  826.059
  40.600  847.335
  40.700  737.513
  40.800  886.481
  40.900  836.049
  41.000  843.158
  41.100  750.131
  41.200  813.295
  41.300  694.320
  41.400  780.069
  41.500  905.456
  41.600  842.814
  41.700  702.656
  41.800  646.160
  41.900  685.832
  42.000  810.952
  42.100  953.942
  42.200  824.654
  42.300  949.311
  42.400 1070.914
  42.500  922.608
  42.600 1051.588
  42.700 1038.518
  42.800  837.869
  42.900  696.109
  43.000  746.245
  43.100  653.984
  43.200  601.219
  43.300  604.004
  43.400  486.729
  43.500  591.147
  43.600  629.802
  43.700  669.665
  43.800  535.208
  43.900  644.601
  44.000  484.872

File: 2M1-std-7.TXT
Sample
Comments
Filename	C:\WINDMAX\DATA\USERS\GEO\GEO_ER~1\Pyrenees\BULKMA~1\2M1-std2.raw
Goniometer	Ultima IV In-plane
Attachment	Auto sample changer (10 samples)
ScanningMode	2Theta/Theta
ScanningType	Continuos Scanning
X-Ray	40kV/44mA
DivSlit	2/3deg.
DivH.L.Slit	10mm
SctSlit	2/3deg.
RecSlit	0.3mm
Start	16
Stop	44
Step	0.02
Speed	0.3
Offset	0
  16.000  659.133
  16.100  676.872
  16.200  614.434
  16.300  762.307
  16.400  597.816
  16.500  771.917
  16.600  632.462
  16.700  648.478
  16.800  718.569
  16.900  613.844
  17.000  513.526
  17.100  513.723
  17.200  643.860
  17.300  624.180
  17.400  648.361
  17.500  779.149
  17.600  720.677
  17.700  791.017
  17.800 1076.190
  17.900 1401.427
  18.000 1369.687
  18.100 1282.778
  18.200  897.388
  18.300  649.746
  18.400  686.047
  18.500  626.847
  18.600  738.562
  18.700  853.282
  18.800  796.841
  18.900  783.317
  19.000  751.854
  19.100  573.655
  19.200  741.580
  19.300  743.103
  19.400  737.483
  19.500  696.203
  19.600  981.106
  19.700 1131.158
  19.800 1395.022
  19.900 2125.972
  20.000 2674.836
  20.100 2314.196
  20.200 1618.093
  20.300 1193.089
  20.400  963.365
  20.500 1001.564
  20.600  947.651
  20.700 1016.325
  20.800 1286.563
  20.900  986.422
  21.000  934.619
  21.100  875.270
  21.200  747.708
  21.300  739.233
  21.400  880.767
  21.500  924.874
  21.600 1030.315
  21.700 1045.150
  21.800 1116.629
  21.900  972.273
  22.000  742.154
  22.100  847.915
  22.200  781.180
  22.300  848.914
  22.400  943.032
  22.500  840.077
  22.600  977.006
  22.700  931.252
  22.800  980.630
  22.900 1249.116
  23.000 1425.520
  23.100 1662.230
  23.200 1218.474
  23.300  961.848
  23.400  890.787
  23.500  819.103
  23.600  908.348
  23.700  954.394
  23.800 1175.462
  23.900 1480.626
  24.000 1570.018
  24.100 1528.733
  24.200 1390.945
  24.300 1093.180
  24.400  932.219
  24.500  869.573
  24.600  842.220
  24.700  923.464
  24.800  816.140
  24.900  981.263
  25.000  868.352
  25.100  937.400
  25.200 1090.615
  25.300 1204.400
  25.400 1321.392
  25.500 1307.570
  25.600 1593.352
  25.700 1711.402
  25.800 1373.096
  25.900  982.466
  26.000  878.901
  26.100  820.539
  26.200  763.224
  26.300  853.882
  26.400  889.375
  26.500 1020.160
  26.600 1328.357
  26.700 1890.724
  26.800 2348.499
  26.900 2280.524
  27.000 1829.884
  27.100 1454.096
  27.200 1078.675
  27.300  975.396
  27.400  889.427
  27.500  970.633
  27.600 1083.817
  27.700 1142.398
  27.800 1273.366
  27.900 1525.039
  28.000 1669.877
  28.100 1648.055
  28.200 1155.127
  28.300 1083.290
  28.400  998.148
  28.500  788.607
  28.600  987.106
  28.700  820.506
  28.800  931.386
  28.900  867.335
  29.000  850.844
  29.100  742.956
  29.200  794.698
  29.300  763.760
  29.400  665.248
  29.500  802.466
  29.600  846.735
  29.700  869.277
  29.800 1184.643
  29.900 1371.009
  30.000 1605.314
  30.100 1543.278
  30.200 1040.813
  30.300  827.101
  30.400  784.489
  30.500  597.407
  30.600  811.427
  30.700  644.781
  30.800  691.475
  30.900  758.802
  31.000  810.500
  31.100 1054.058
  31.200 1045.084
  31.300 1363.724
  31.400 1501.272
  31.500 1579.293
  31.600 1542.063
  31.700 1305.088
  31.800 1372.597
  31.900 1231.623
  32.000 1151.040
  32.100 1017.319
  32.200 1276.755
  32.300 1130.055
  32.400  951.808
  32.500  787.309
  32.600  743.755
  32.700  575.139
  32.800  697.188
  32.900  783.333
  33.000  636.844
  33.100  681.387
  33.200  702.591
  33.300  614.906
  33.400  545.164
  33.500  624.933
  33.600  729.294
  33.700  622.149
  33.800  598.260
  33.900  621.831
  34.000  658.788
  34.100  636.331
  34.200  825.677
  34.300  838.497
  34.400  716.607
  34.500 1001.697
  34.600 1273.467
  34.700 1596.425
  34.800 1661.513
  34.900 1739.704
  35.000 2042.803
  35.100 2668.086
  35.200 2927.076
  35.300 2124.837
  35.400 1377.198
  35.500 1069.339
  35.600  855.154
  35.700  868.217
  35.800  738.602
  35.900  846.515
  36.000  869.679
  36.100  975.282
  36.200  830.599
  36.300  739.357
  36.400  781.091
  36.500  850.693
  36.600  989.208
  36.700 1192.620
  36.800 1155.088
  36.900  950.558
  37.000  969.289
  37.100  936.280
  37.200  853.608
  37.300  829.433
  37.400  759.029
  37.500  991.400
  37.600  943.398
  37.700  938.474
  37.800 1079.113
  37.900 1154.164
  38.000 1121.119
  38.100 1050.739
  38.200  785.322
  38.300  847.956
  38.400  635.776
  38.500  758.024
  38.600  639.736
  38.700  737.265
  38.800  732.136
  38.900  657.926
  39.000  596.967
  39.100  648.777
  39.200  614.192
  39.300  534.931
  39.400  678.686
  39.500  591.955
  39.600  605.281
  39.700  679.732
  39.800  552.516
  39.900  678.980
  40.000  606.435
  40.100  752.277
  40.200  962.593
  40.300  937.919
  40.400  953.990
  40.500  756.615
  40.600  704.371
  40.700  727.650
  40.800  894.343
  40.900  798.699
  41.000  935.778
  41.100  963.280
  41.200  813.477
  41.300  702.009
  41.400  709.568
  41.500  686.153
  41.600  866.593
  41.700  791.022
  41.800  561.729
  41.900  661.326
  42.000  736.681
  42.100  887.042
  42.200 1048.312
  42.300  936.826
  42.400 1093.897
  42.500  985.565
  42.600  982.568
  42.700  877.374
  42.800  819.430
  42.900  692.197
  43.000  531.090
  43.100  534.221
  43.200  618.639
  43.300  606.798
  43.400  537.443
  43.500  442.942
  43.600  662.823
  43.700  459.389
  43.800  541.346
  43.900  638.729
  44.000  551.600