Folder: Linux_class/xrd_output/random_files (part 9)

File: 2M1-std-32.TXT
Sample
Comments
Filename	C:\WINDMAX\DATA\USERS\GEO\GEO_ER~1\Pyrenees\BULKMA~1\2M1-std2.raw
Goniometer	Ultima IV In-plane
Attachment	Auto sample changer (10 samples)
ScanningMode	2Theta/Theta
ScanningType	Continuos Scanning
X-Ray	40kV/44mA
DivSlit	2/3deg.
DivH.L.Slit	10mm
SctSlit	2/3deg.
RecSlit	0.3mm
Start	16
Stop	44
Step	0.02
Speed	0.3
Offset	0
  16.000  761.270
  16.100  800.838
  16.200  591.366
  16.300  702.215
  16.400  591.756
  16.500  710.530
  16.600  701.346
  16.700  717.469
  16.800  649.509
  16.900  636.193
  17.000  723.931
  17.100  761.816
  17.200  699.125
  17.300  557.267
  17.400  780.416
  17.500  768.612
  17.600  816.608
  17.700  865.090
  17.800 1076.696
  17.900 1320.188
  18.000 1334.266
  18.100 1150.829
  18.200  991.795
  18.300  711.401
  18.400  720.790
  18.500  630.995
  18.600  774.824
  18.700  805.996
  18.800  822.482
  18.900  672.848
  19.000  658.643
  19.100  811.644
  19.200  647.191
  19.300  679.926
  19.400  827.124
  19.500  787.175
  19.600  844.259
  19.700 1079.320
  19.800 1588.314
  19.900 2282.041
  20.000 2587.488
  20.100 2395.867
  20.200 1557.446
  20.300 1053.987
  20.400 1144.582
  20.500 1020.802
  20.600 1021.221
  20.700 1064.293
  20.800 1118.990
  20.900 1085.157
  21.000  798.026
  21.100  690.919
  21.200  757.324
  21.300  756.025
  21.400  900.806
  21.500  827.211
  21.600  993.222
  21.700  988.537
  21.800  952.556
  21.900  873.282
  22.000  746.100
  22.100  799.218
  22.200  884.044
  22.300  737.604
  22.400  763.900
  22.500 1007.588
  22.600  891.197
  22.700  845.251
  22.800  940.527
  22.900 1364.415
  23.000 1512.164
  23.100 1543.531
  23.200 1432.854
  23.300 1117.991
  23.400  796.810
  23.500  906.132
  23.600 1000.419
  23.700  924.530
  23.800 1155.275
  23.900 1516.060
  24.000 1606.001
  24.100 1488.074
  24.200 1373.229
  24.300 1226.958
  24.400  942.388
  24.500  931.772
  24.600  842.811
  24.700  751.204
  24.800  782.966
  24.900  828.606
  25.000  784.673
  25.100  888.311
  25.200 1031.726
  25.300 1264.709
  25.400 1159.494
  25.500 1429.376
  25.600 1678.679
  25.700 1652.156
  25.800 1225.470
  25.900  921.867
  26.000  824.252
  26.100 1002.284
  26.200  926.439
  26.300 1001.943
  26.400 1084.349
  26.500 1232.101
  26.600 1279.888
  26.700 1890.427
  26.800 2329.539
  26.900 2416.751
  27.000 1783.609
  27.100 1388.732
  27.200 1114.075
  27.300 1107.165
  27.400  845.318
  27.500  826.806
  27.600  984.759
  27.700 1016.148
  27.800 1218.829
  27.900 1350.381
  28.000 1776.313
  28.100 1429.380
  28.200 1350.575
  28.300 1129.447
  28.400  973.518
  28.500  772.468
  28.600  832.476
  28.700  916.423
  28.800  879.985
  28.900  835.868
  29.000  716.973
  29.100  746.733
  29.200  772.745
  29.300  608.806
  29.400  783.688
  29.500  781.509
  29.600  719.537
  29.700 1010.335
  29.800 1078.001
  29.900 1457.214
  30.000 1667.164
  30.100 1418.580
  30.200 1120.131
  30.300  820.041
  30.400  747.252
  30.500  696.814
  30.600  597.069
  30.700  740.836
  30.800  635.694
  30.900  710.836
  31.000  854.107
  31.100  967.337
  31.200 1173.783
  31.300 1485.552
  31.400 1538.224
  31.500 1376.730
  31.600 1566.599
  31.700 1459.606
  31.800 1418.610
  31.900 1056.216
  32.000 1105.136
  32.100 1071.881
  32.200 1267.973
  32.300  987.730
  32.400  741.947
  32.500  717.636
  32.600  776.408
  32.700  716.298
  32.800  625.975
  32.900  572.650
  33.000  744.753
  33.100  776.474
  33.200  591.313
  33.300  622.792
  33.400  668.062
  33.500  546.390
  33.600  636.391
  33.700  585.416
  33.800  604.486
  33.900  771.784
  34.000  835.059
  34.100  751.643
  34.200  738.732
  34.300  818.850
  34.400  750.068
  34.500  991.262
  34.600 1215.675
  34.700 1520.969
  34.800 1784.089
  34.900 1682.058
  35.000 2031.508
  35.100 2683.069
  35.200 2762.454
  35.300 1988.175
  35.400 1353.342
  35.500 1008.581
  35.600  769.375
  35.700  708.669
  35.800  809.838
  35.900  920.365
  36.000  751.303
  36.100  970.769
  36.200  964.923
  36.300  721.165
  36.400  892.913
  36.500  933.391
  36.600 1116.630
  36.700  960.503
  36.800 1152.822
  36.900  843.986
  37.000  807.170
  37.100  728.789
  37.200  743.128
  37.300  704.590
  37.400  783.452
  37.500  821.205
  37.600 1022.270
  37.700  979.429
  37.800 1000.667
  37.900 1136.441
  38.000 1097.660
  38.100  952.495
  38.200  858.866
  38.300  746.907
  38.400  887.951
  38.500  629.013
  38.600  725.553
  38.700  502.353
  38.800  578.651
  38.900  613.268
  39.000  547.067
  39.100  599.913
  39.200  534.032
  39.300  581.015
  39.400  564.854
  39.500  627.153
  39.600  491.529
  39.700  731.056
  39.800  531.205
  39.900  683.526
  40.000  798.024
  40.100  881.905
  40.200  872.265
  40.300  976.288
  40.400  773.040
  40.500  814.447
  40.600  691.917
  40.700  874.142
  40.800  739.013
  40.900  767.924
  41.000  903.438
  41.100  949.906
  41.200  749.742
  41.300  856.974
  41.400  870.967
  41.500  787.395
  41.600  859.331
  41.700  825.149
  41.800  661.240
  41.900  647.122
  42.000  854.011
  42.100  924.742
  42.200  970.408
  42.300  873.113
  42.400  878.079
  42.500  969.964
  42.600 1072.353
  42.700  898.829
  42.800  826.047
  42.900  704.090
  43.000  510.156
  43.100  622.076
  43.200  567.929
  43.300  628.169
  43.400  588.895
  43.500  628.511
  43.600  449.530
  43.700  542.940
  43.800  656.973
  43.900  586.526
  44.000  530.520

File: 2M1-std-33.TXT
Sample
Comments
Filename	C:\WINDMAX\DATA\USERS\GEO\GEO_ER~1\Pyrenees\BULKMA~1\2M1-std2.raw
Goniometer	Ultima IV In-plane
Attachment	Auto sample changer (10 samples)
ScanningMode	2Theta/Theta
ScanningType	Continuos Scanning
X-Ray	40kV/44mA
DivSlit	2/3deg.
DivH.L.Slit	10mm
SctSlit	2/3deg.
RecSlit	0.3mm
Start	16
Stop	44
Step	0.02
Speed	0.3
Offset	0
  16.000  590.060
  16.100  621.862
  16.200  583.692
  16.300  683.702
  16.400  636.133
  16.500  600.521
  16.600  555.890
  16.700  583.944
  16.800  550.593
  16.900  739.203
  17.000  767.229
  17.100  702.438
  17.200  609.187
  17.300  682.368
  17.400  784.504
  17.500  689.087
  17.600  698.059
  17.700  974.390
  17.800  995.225
  17.900 1402.413
  18.000 1374.793
  18.100 1173.478
  18.200  890.670
  18.300  745.273
  18.400  764.290
  18.500  695.869
  18.600  676.751
  18.700  785.389
  18.800  788.511
  18.900  646.426
  19.000  559.104
  19.100  582.544
  19.200  631.515
  19.300  818.089
  19.400  713.875
  19.500  808.354
  19.600 1057.051
  19.700 1094.688
  19.800 1633.452
  19.900 2160.075
  20.000 2601.942
  20.100 2301.629
  20.200 1591.493
  20.300 1289.466
  20.400 1146.193
  20.500  891.541
  20.600  958.304
  20.700 1118.113
  20.800 1220.542
  20.900 1128.113
  21.000  872.648
  21.100  681.639
  21.200  827.781
  21.300  844.083
  21.400  733.727
  21.500  874.196
  21.600 1092.536
  21.700 1079.365
  21.800 1163.738
  21.900 1059.417
  22.000  908.208
  22.100  927.409
  22.200  691.597
  22.300  893.519
  22.400  755.926
  22.500  871.008
  22.600  817.634
  22.700  860.235
  22.800 1139.452
  22.900 1157.244
  23.000 1584.699
  23.100 1640.048
  23.200 1375.649
  23.300 1112.177
  23.400  998.949
  23.500  823.536
  23.600  952.814
  23.700  944.731
  23.800 1068.228
  23.900 1431.484
  24.000 1628.012
  24.100 1390.768
  24.200 1430.464
  24.300 1069.117
  24.400  901.453
  24.500  715.720
  24.600  688.856
  24.700  712.462
  24.800  897.987
  24.900  851.074
  25.000  905.376
  25.100 1015.866
  25.200 1110.133
  25.300 1032.182
  25.400 1299.276
  25.500 1527.840
  25.600 1714.478
  25.700 1579.426
  25.800 1359.822
  25.900 1141.483
  26.000  961.652
  26.100  827.984
  26.200  913.841
  26.300  970.131
  26.400 1001.040
  26.500 1048.089
  26.600 1510.528
  26.700 1911.737
  26.800 2225.362
  26.900 2436.650
  27.000 1752.979
  27.100 1317.669
  27.200 1202.649
  27.300  977.234
  27.400  896.076
  27.500  939.921
  27.600  923.484
  27.700 1067.038
  27.800 1275.822
  27.900 1590.847
  28.000 1699.683
  28.100 1554.890
  28.200 1187.460
  28.300  977.411
  28.400  971.192
  28.500  989.819
  28.600  923.993
  28.700  996.525
  28.800 1023.196
  28.900  774.905
  29.000  900.748
  29.100  848.446
  29.200  644.938
  29.300  677.931
  29.400  851.429
  29.500  696.239
  29.600  732.315
  29.700 1022.798
  29.800 1124.325
  29.900 1451.852
  30.000 1617.201
  30.100 1464.344
  30.200 1159.285
  30.300  929.288
  30.400  896.133
  30.500  822.041
  30.600  645.919
  30.700  714.605
  30.800  751.938
  30.900  860.057
  31.000  904.048
  31.100  928.983
  31.200 1260.037
  31.300 1434.926
  31.400 1599.117
  31.500 1557.817
  31.600 1603.324
  31.700 1373.120
  31.800 1231.687
  31.900 1147.782
  32.000  933.412
  32.100 1225.005
  32.200 1136.223
  32.300  989.875
  32.400  943.724
  32.500  837.429
  32.600  789.539
  32.700  708.675
  32.800  746.556
  32.900  735.808
  33.000  836.334
  33.100  685.783
  33.200  584.961
  33.300  720.043
  33.400  663.704
  33.500  556.802
  33.600  566.871
  33.700  699.968
  33.800  664.777
  33.900  734.869
  34.000  733.841
  34.100  817.125
  34.200  712.424
  34.300  820.631
  34.400  711.617
  34.500  798.274
  34.600 1139.177
  34.700 1621.972
  34.800 1703.708
  34.900 1816.275
  35.000 2031.802
  35.100 2546.201
  35.200 2935.546
  35.300 2160.302
  35.400 1353.118
  35.500 1018.376
  35.600  991.219
  35.700  732.119
  35.800  667.546
  35.900  960.982
  36.000  726.094
  36.100  787.465
  36.200  903.971
  36.300  775.254
  36.400  891.258
  36.500  860.450
  36.600 1027.068
  36.700 1122.666
  36.800 1034.461
  36.900  840.333
  37.000  809.885
  37.100  715.029
  37.200  725.435
  37.300  887.062
  37.400  802.176
  37.500  886.851
  37.600  916.694
  37.700 1150.713
  37.800 1208.819
  37.900 1308.408
  38.000 1175.670
  38.100 1036.745
  38.200  944.717
  38.300  703.176
  38.400  743.474
  38.500  730.318
  38.600  728.670
  38.700  580.319
  38.800  653.342
  38.900  628.596
  39.000  510.462
  39.100  577.561
  39.200  539.290
  39.300  682.141
  39.400  716.321
  39.500  655.443
  39.600  630.464
  39.700  646.890
  39.800  548.343
  39.900  551.302
  40.000  566.711
  40.100  823.669
  40.200  871.100
  40.300  801.052
  40.400  740.228
  40.500  910.450
  40.600  738.476
  40.700  832.670
  40.800  897.329
  40.900  846.618
  41.000  731.259
  41.100  785.442
  41.200  744.529
  41.300  804.091
  41.400  851.627
  41.500  706.119
  41.600  771.706
  41.700  809.704
  41.800  698.626
  41.900  640.844
  42.000  844.287
  42.100  841.739
  42.200  794.988
  42.300 1006.487
  42.400  880.385
  42.500  988.264
  42.600 1017.632
  42.700  912.506
  42.800  863.109
  42.900  609.309
  43.000  677.570
  43.100  519.187
  43.200  520.030
  43.300  551.438
  43.400  539.664
  43.500  630.688
  43.600  708.734
  43.700  621.236
  43.800  625.713
  43.900  697.550
  44.000  610.319

File: 2M1-std-34.TXT
Sample
Comments
Filename	C:\WINDMAX\DATA\USERS\GEO\GEO_ER~1\Pyrenees\BULKMA~1\2M1-std2.raw
Goniometer	Ultima IV In-plane
Attachment	Auto sample changer (10 samples)
ScanningMode	2Theta/Theta
ScanningType	Continuos Scanning
X-Ray	40kV/44mA
DivSlit	2/3deg.
DivH.L.Slit	10mm
SctSlit	2/3deg.
RecSlit	0.3mm
Start	16
Stop	44
Step	0.02
Speed	0.3
Offset	0
  16.000  645.047
  16.100  857.889
  16.200  570.967
  16.300  712.733
  16.400  680.684
  16.500  515.437
  16.600  664.860
  16.700  597.799
  16.800  749.778
  16.900  623.682
  17.000  699.548
  17.100  687.992
  17.200  657.671
  17.300  770.979
  17.400  630.292
  17.500  743.874
  17.600  774.804
  17.700  814.555
  17.800 1174.288
  17.900 1437.391
  18.000 1302.276
  18.100 1258.904
  18.200 1051.605
  18.300  754.311
  18.400  851.794
  18.500  653.654
  18.600  865.015
  18.700  785.419
  18.800  724.585
  18.900  748.164
  19.000  592.495
  19.100  668.173
  19.200  848.409
  19.300  680.386
  19.400  744.968
  19.500  875.392
  19.600  831.961
  19.700 1050.524
  19.800 1638.377
  19.900 2277.347
  20.000 2802.872
  20.100 2336.049
  20.200 1545.291
  20.300 1089.184
  20.400 1030.635
  20.500  998.179
  20.600  997.368
  20.700 1065.304
  20.800 1316.927
  20.900  966.929
  21.000  925.645
  21.100  739.410
  21.200  710.458
  21.300  816.396
  21.400  947.304
  21.500 1051.294
  21.600 1059.943
  21.700 1121.909
  21.800  968.177
  21.900  958.618
  22.000  865.610
  22.100  861.864
  22.200  733.747
  22.300  824.817
  22.400  846.827
  22.500  886.692
  22.600  802.095
  22.700  888.660
  22.800 1136.422
  22.900 1306.976
  23.000 1457.373
  23.100 1513.222
  23.200 1261.067
  23.300  947.603
  23.400  961.762
  23.500  955.936
  23.600  816.322
  23.700 1048.168
  23.800 1120.481
  23.900 1380.669
  24.000 1558.330
  24.100 1363.062
  24.200 1292.803
  24.300 1182.068
  24.400  864.666
  24.500  838.343
  24.600  771.635
  24.700  765.657
  24.800  728.105
  24.900  991.622
  25.000  955.504
  25.100 1118.916
  25.200  969.640
  25.300 1073.027
  25.400 1223.659
  25.500 1532.140
  25.600 1561.996
  25.700 1626.206
  25.800 1264.983
  25.900 1046.913
  26.000  973.123
  26.100  878.379
  26.200  906.532
  26.300 1004.166
  26.400 1098.182
  26.500 1217.663
  26.600 1284.376
  26.700 1946.319
  26.800 2144.052
  26.900 2408.663
  27.000 1824.190
  27.100 1434.760
  27.200 1110.684
  27.300  953.736
  27.400 1004.881
  27.500  912.782
  27.600 1010.472
  27.700  997.219
  27.800 1268.208
  27.900 1369.896
  28.000 1665.769
  28.100 1600.522
  28.200 1300.282
  28.300 1191.577
  28.400  802.661
  28.500  884.814
  28.600  953.863
  28.700  960.281
  28.800 1019.473
  28.900  841.233
  29.000  896.375
  29.100  910.697
  29.200  751.138
  29.300  664.571
  29.400  720.022
  29.500  841.456
  29.600  894.107
  29.700  798.769
  29.800 1120.079
  29.900 1278.621
  30.000 1538.813
  30.100 1366.384
  30.200 1071.638
  30.300  902.259
  30.400  842.772
  30.500  621.773
  30.600  689.085
  30.700  584.484
  30.800  605.727
  30.900  861.380
  31.000  783.713
  31.100  860.769
  31.200 1153.233
  31.300 1504.608
  31.400 1692.182
  31.500 1513.153
  31.600 1398.598
  31.700 1334.440
  31.800 1240.144
  31.900 1227.319
  32.000 1148.228
  32.100 1095.095
  32.200 1267.704
  32.300  986.773
  32.400  749.373
  32.500  736.056
  32.600  794.931
  32.700  711.572
  32.800  696.159
  32.900  690.024
  33.000  641.383
  33.100  724.652
  33.200  767.009
  33.300  723.281
  33.400  774.551
  33.500  510.729
  33.600  679.970
  33.700  590.454
  33.800  786.784
  33.900  646.060
  34.000  653.446
  34.100  722.168
  34.200  821.279
  34.300  630.078
  34.400  882.860
  34.500  793.763
  34.600 1096.493
  34.700 1449.261
  34.800 1742.510
  34.900 1790.432
  35.000 1959.783
  35.100 2616.323
  35.200 2923.674
  35.300 2206.211
  35.400 1443.305
  35.500  955.213
  35.600  957.002
  35.700  828.455
  35.800  820.666
  35.900  820.357
  36.000  903.294
  36.100  889.193
  36.200  863.728
  36.300  878.514
  36.400  757.811
  36.500 1027.716
  36.600 1091.481
  36.700 1094.952
  36.800 1075.716
  36.900  973.186
  37.000  973.346
  37.100  804.512
  37.200  757.900
  37.300  800.019
  37.400  908.194
  37.500  745.687
  37.600  924.887
  37.700  993.771
  37.800 1236.436
  37.900 1157.337
  38.000 1211.040
  38.100 1019.535
  38.200  891.662
  38.300  829.312
  38.400  651.092
  38.500  705.252
  38.600  549.004
  38.700  606.814
  38.800  514.600
  38.900  488.560
  39.000  710.240
  39.100  680.073
  39.200  496.544
  39.300  630.897
  39.400  737.313
  39.500  688.212
  39.600  639.178
  39.700  737.160
  39.800  612.309
  39.900  705.807
  40.000  571.298
  40.100  807.422
  40.200  942.755
  40.300  935.459
  40.400  729.141
  40.500  718.369
  40.600  799.785
  40.700  699.873
  40.800  830.292
  40.900 1002.285
  41.000  811.658
  41.100  911.730
  41.200  772.127
  41.300  886.295
  41.400  760.226
  41.500  660.889
  41.600  653.589
  41.700  785.402
  41.800  683.486
  41.900  620.980
  42.000  698.120
  42.100  727.782
  42.200 1027.395
  42.300 1022.343
  42.400  868.234
  42.500 1091.099
  42.600  974.684
  42.700  966.063
  42.800  663.387
  42.900  770.549
  43.000  517.228
  43.100  631.019
  43.200  491.272
  43.300  625.848
  43.400  552.184
  43.500  440.513
  43.600  539.512
  43.700  619.823
  43.800  556.817
  43.900  584.941
  44.000  716.735

File: 2M1-std-35.TXT
Sample
Comments
Filename	C:\WINDMAX\DATA\USERS\GEO\GEO_ER~1\Pyrenees\BULKMA~1\2M1-std2.raw
Goniometer	Ultima IV In-plane
Attachment	Auto sample changer (10 samples)
ScanningMode	2Theta/Theta
ScanningType	Continuos Scanning
X-Ray	40kV/44mA
DivSlit	2/3deg.
DivH.L.Slit	10mm
SctSlit	2/3deg.
RecSlit	0.3mm
Start	16
Stop	44
Step	0.02
Speed	0.3
Offset	0
  16.000  789.299
  16.100  835.922
  16.200  825.649
  16.300  585.514
  16.400  677.456
  16.500  767.520
  16.600  575.235
  16.700  560.519
  16.800  689.081
  16.900  551.763
  17.000  524.432
  17.100  596.591
  17.200  640.443
  17.300  605.480
  17.400  800.065
  17.500  644.149
  17.600  775.162
  17.700  808.224
  17.800 1057.435
  17.900 1426.878
  18.000 1327.841
  18.100 1042.614
  18.200  979.779
  18.300  779.488
  18.400  853.286
  18.500  633.267
  18.600  695.330
  18.700  683.795
  18.800  662.979
  18.900  832.193
  19.000  593.120
  19.100  712.436
  19.200  745.101
  19.300  730.926
  19.400  862.207
  19.500  672.683
  19.600  917.792
  19.700 1284.237
  19.800 1636.122
  19.900 2172.042
  20.000 2750.918
  20.100 2437.266
  20.200 1545.119
  20.300 1049.377
  20.400 1160.976
  20.500  871.074
  20.600  949.874
  20.700 1143.580
  20.800 1205.763
  20.900  967.968
  21.000 1008.951
  21.100  887.166
  21.200  764.283
  21.300  790.407
  21.400  753.906
  21.500  971.451
  21.600 1031.870
  21.700 1200.126
  21.800 1086.949
  21.900  923.560
  22.000  810.236
  22.100  799.206
  22.200  874.826
  22.300  812.783
  22.400  836.929
  22.500  825.330
  22.600  930.572
  22.700  997.084
  22.800 1146.335
  22.900 1311.513
  23.000 1495.232
  23.100 1635.289
  23.200 1415.041
  23.300 1151.215
  23.400  818.491
  23.500  873.126
  23.600  941.533
  23.700  881.537
  23.800 1132.662
  23.900 1344.205
  24.000 1488.588
  24.100 1478.714
  24.200 1273.816
  24.300 1122.341
  24.400  873.486
  24.500  791.235
  24.600  925.260
  24.700  838.042
  24.800  746.408
  24.900  790.816
  25.000  863.460
  25.100 1078.749
  25.200 1192.109
  25.300 1081.469
  25.400 1235.409
  25.500 1409.450
  25.600 1751.839
  25.700 1582.771
  25.800 1168.509
  25.900 1111.211
  26.000  884.188
  26.100 1004.425
  26.200  898.693
  26.300  988.665
  26.400  952.866
  26.500 1063.399
  26.600 1320.176
  26.700 1781.028
  26.800 2351.327
  26.900 2447.832
  27.000 1953.528
  27.100 1323.339
  27.200 1082.590
  27.300 1102.915
  27.400  985.931
  27.500  976.168
  27.600 1075.380
  27.700  938.866
  27.800 1219.743
  27.900 1344.308
  28.000 1796.964
  28.100 1599.157
  28.200 1129.178
  28.300  938.437
  28.400  965.642
  28.500  893.350
  28.600  975.649
  28.700  969.952
  28.800  856.897
  28.900  815.199
  29.000  789.173
  29.100  851.771
  29.200  805.227
  29.300  799.488
  29.400  753.837
  29.500  647.969
  29.600  774.958
  29.700  865.078
  29.800  984.663
  29.900 1317.741
  30.000 1619.887
  30.100 1377.670
  30.200 1085.886
  30.300  828.663
  30.400  842.392
  30.500  725.293
  30.600  753.004
  30.700  602.216
  30.800  693.674
  30.900  750.889
  31.000  781.262
  31.100 1044.799
  31.200 1271.749
  31.300 1478.483
  31.400 1655.029
  31.500 1389.096
  31.600 1386.667
  31.700 1380.693
  31.800 1338.603
  31.900 1292.887
  32.000 1103.168
  32.100 1104.428
  32.200 1040.028
  32.300 1082.280
  32.400  901.010
  32.500  817.838
  32.600  718.044
  32.700  669.388
  32.800  690.035
  32.900  787.112
  33.000  849.734
  33.100  764.827
  33.200  662.367
  33.300  617.608
  33.400  767.048
  33.500  629.468
  33.600  701.963
  33.700  630.743
  33.800  617.651
  33.900  658.842
  34.000  640.552
  34.100  806.778
  34.200  650.146
  34.300  715.798
  34.400  744.020
  34.500 1010.652
  34.600 1074.680
  34.700 1454.036
  34.800 1706.019
  34.900 1712.184
  35.000 2194.251
  35.100 2568.335
  35.200 2769.270
  35.300 2216.795
  35.400 1443.916
  35.500 1041.167
  35.600  874.310
  35.700  702.230
  35.800  665.645
  35.900  745.670
  36.000  880.580
  36.100  737.296
  36.200  751.507
  36.300  821.016
  36.400  944.995
  36.500 1002.498
  36.600 1165.949
  36.700 1171.936
  36.800  962.239
  36.900 1088.925
  37.000 1029.020
  37.100  869.483
  37.200  708.754
  37.300  732.900
  37.400  822.319
  37.500  750.959
  37.600  837.261
  37.700 1067.016
  37.800 1029.028
  37.900 1178.697
  38.000 1071.171
  38.100  906.531
  38.200  991.058
  38.300  806.749
  38.400  795.601
  38.500  629.574
  38.600  517.230
  38.700  574.144
  38.800  611.816
  38.900  621.959
  39.000  570.069
  39.100  660.335
  39.200  727.597
  39.300  595.291
  39.400  656.033
  39.500  585.475
  39.600  664.878
  39.700  599.988
  39.800  532.108
  39.900  716.543
  40.000  629.672
  40.100  837.931
  40.200  783.141
  40.300  816.940
  40.400  887.848
  40.500  708.554
  40.600  720.310
  40.700  702.630
  40.800  955.488
  40.900  835.070
  41.000  799.587
  41.100  960.614
  41.200  889.136
  41.300  708.018
  41.400  766.525
  41.500  866.061
  41.600  741.532
  41.700  734.888
  41.800  585.936
  41.900  789.227
  42.000  895.222
  42.100  878.976
  42.200 1013.688
  42.300  829.159
  42.400  995.400
  42.500  986.531
  42.600 1130.453
  42.700  934.594
  42.800  659.492
  42.900  737.879
  43.000  613.501
  43.100  458.099
  43.200  584.265
  43.300  436.907
  43.400  496.310
  43.500  502.082
  43.600  480.216
  43.700  525.706
  43.800  587.126
  43.900  632.197
  44.000  645.267