Folder: Linux_class/xrd_output/random_files (part 13)

File: 2M1-std-48.TXT
Sample
Comments
Filename	C:\WINDMAX\DATA\USERS\GEO\GEO_ER~1\Pyrenees\BULKMA~1\2M1-std2.raw
Goniometer	Ultima IV In-plane
Attachment	Auto sample changer (10 samples)
ScanningMode	2Theta/Theta
ScanningType	Continuos Scanning
X-Ray	40kV/44mA
DivSlit	2/3deg.
DivH.L.Slit	10mm
SctSlit	2/3deg.
RecSlit	0.3mm
Start	16
Stop	44
Step	0.02
Speed	0.3
Offset	0
  16.000  804.714
  16.100  715.449
  16.200  652.802
  16.300  529.770
  16.400  638.130
  16.500  675.100
  16.600  706.259
  16.700  745.189
  16.800  570.950
  16.900  775.180
  17.000  618.782
  17.100  679.121
  17.200  701.225
  17.300  637.787
  17.400  769.255
  17.500  752.386
  17.600  754.498
  17.700  960.393
  17.800  968.095
  17.900 1238.978
  18.000 1386.489
  18.100 1069.024
  18.200  822.920
  18.300  637.148
  18.400  787.471
  18.500  727.121
  18.600  857.406
  18.700  834.045
  18.800  671.759
  18.900  799.092
  19.000  752.645
  19.100  630.940
  19.200  786.856
  19.300  711.953
  19.400  673.479
  19.500  807.021
  19.600  887.706
  19.700 1216.693
  19.800 1390.261
  19.900 2254.409
  20.000 2679.509
  20.100 2447.278
  20.200 1536.974
  20.300 1111.725
  20.400 1147.758
  20.500 1009.785
  20.600 1113.196
  20.700 1234.800
  20.800 1268.312
  20.900  986.880
  21.000  802.259
  21.100  692.094
  21.200  767.963
  21.300  924.776
  21.400  791.645
  21.500 1016.655
  21.600 1053.449
  21.700 1036.232
  21.800 1016.170
  21.900  815.206
  22.000  800.074
  22.100  745.301
  22.200  814.924
  22.300  859.163
  22.400  961.434
  22.500  833.621
  22.600  930.838
  22.700  867.199
  22.800 1007.571
  22.900 1173.279
  23.000 1437.393
  23.100 1664.546
  23.200 1342.737
  23.300 1120.650
  23.400  825.518
  23.500  860.340
  23.600  874.361
  23.700  938.978
  23.800 1288.188
  23.900 1426.461
  24.000 1472.135
  24.100 1369.558
  24.200 1296.627
  24.300 1177.823
  24.400 1061.171
  24.500  915.055
  24.600  850.492
  24.700  920.275
  24.800  821.044
  24.900  747.883
  25.000  803.510
  25.100  950.787
  25.200 1169.285
  25.300 1069.923
  25.400 1247.141
  25.500 1431.623
  25.600 1744.563
  25.700 1568.295
  25.800 1185.217
  25.900  965.529
  26.000 1032.834
  26.100  834.554
  26.200  889.997
  26.300  918.970
  26.400  853.744
  26.500 1116.867
  26.600 1452.008
  26.700 1905.035
  26.800 2370.287
  26.900 2220.138
  27.000 1950.732
  27.100 1459.547
  27.200 1103.952
  27.300  999.320
  27.400  931.224
  27.500  949.421
  27.600  924.466
  27.700 1102.409
  27.800 1199.764
  27.900 1496.502
  28.000 1822.585
  28.100 1531.564
  28.200 1351.160
  28.300  971.690
  28.400 1053.853
  28.500  789.016
  28.600  898.796
  28.700  803.654
  28.800  863.742
  28.900  919.020
  29.000  847.847
  29.100  883.383
  29.200  839.470
  29.300  690.833
  29.400  727.082
  29.500  816.881
  29.600  787.193
  29.700  999.192
  29.800 1180.296
  29.900 1384.224
  30.000 1497.331
  30.100 1474.965
  30.200 1012.069
  30.300  886.474
  30.400  735.891
  30.500  604.389
  30.600  724.151
  30.700  803.774
  30.800  663.201
  30.900  852.945
  31.000  896.431
  31.100 1021.069
  31.200 1243.228
  31.300 1363.422
  31.400 1566.137
  31.500 1471.395
  31.600 1385.205
  31.700 1292.088
  31.800 1310.803
  31.900 1166.972
  32.000 1048.913
  32.100 1126.895
  32.200 1101.457
  32.300 1089.670
  32.400  925.203
  32.500  715.328
  32.600  746.455
  32.700  609.903
  32.800  781.735
  32.900  791.772
  33.000  709.670
  33.100  558.287
  33.200  743.186
  33.300  771.790
  33.400  665.752
  33.500  580.707
  33.600  735.047
  33.700  685.598
  33.800  802.783
  33.900  673.124
  34.000  727.108
  34.100  690.724
  34.200  744.691
  34.300  623.758
  34.400  781.477
  34.500  899.887
  34.600 1242.234
  34.700 1387.748
  34.800 1713.976
  34.900 1718.008
  35.000 1994.394
  35.100 2659.664
  35.200 2750.860
  35.300 2028.872
  35.400 1347.349
  35.500 1100.482
  35.600  986.566
  35.700  730.221
  35.800  788.215
  35.900  956.451
  36.000  881.306
  36.100  899.532
  36.200  934.641
  36.300  873.194
  36.400  984.652
  36.500 1087.117
  36.600 1214.843
  36.700 1123.449
  36.800  928.111
  36.900  929.108
  37.000  835.675
  37.100  843.841
  37.200  801.250
  37.300  776.794
  37.400  700.387
  37.500  978.768
  37.600  833.917
  37.700  940.730
  37.800 1166.728
  37.900 1175.639
  38.000 1157.874
  38.100 1043.325
  38.200  816.815
  38.300  735.952
  38.400  750.158
  38.500  599.403
  38.600  525.620
  38.700  637.676
  38.800  579.682
  38.900  500.130
  39.000  559.854
  39.100  716.298
  39.200  731.400
  39.300  626.118
  39.400  682.877
  39.500  629.405
  39.600  520.270
  39.700  599.831
  39.800  680.069
  39.900  716.680
  40.000  728.597
  40.100  660.394
  40.200  961.851
  40.300  957.608
  40.400  911.569
  40.500  680.745
  40.600  792.675
  40.700  633.395
  40.800  940.247
  40.900  781.751
  41.000  926.867
  41.100  959.145
  41.200  704.840
  41.300  860.119
  41.400  699.074
  41.500  673.035
  41.600  792.581
  41.700  669.327
  41.800  757.281
  41.900  807.792
  42.000  743.968
  42.100  898.532
  42.200  985.746
  42.300  905.329
  42.400  991.580
  42.500 1151.713
  42.600 1152.308
  42.700  901.159
  42.800  859.897
  42.900  533.165
  43.000  557.038
  43.100  629.403
  43.200  539.667
  43.300  658.372
  43.400  480.506
  43.500  557.170
  43.600  451.131
  43.700  508.765
  43.800  531.031
  43.900  536.446
  44.000  710.304

File: 2M1-std-49.TXT
Sample
Comments
Filename	C:\WINDMAX\DATA\USERS\GEO\GEO_ER~1\Pyrenees\BULKMA~1\2M1-std2.raw
Goniometer	Ultima IV In-plane
Attachment	Auto sample changer (10 samples)
ScanningMode	2Theta/Theta
ScanningType	Continuos Scanning
X-Ray	40kV/44mA
DivSlit	2/3deg.
DivH.L.Slit	10mm
SctSlit	2/3deg.
RecSlit	0.3mm
Start	16
Stop	44
Step	0.02
Speed	0.3
Offset	0
  16.000  624.346
  16.100  715.951
  16.200  755.936
  16.300  783.944
  16.400  504.276
  16.500  727.568
  16.600  732.443
  16.700  522.419
  16.800  635.399
  16.900  629.844
  17.000  723.553
  17.100  636.722
  17.200  545.462
  17.300  768.280
  17.400  616.123
  17.500  581.798
  17.600  682.253
  17.700  986.337
  17.800 1072.719
  17.900 1370.935
  18.000 1274.669
  18.100 1139.195
  18.200  958.677
  18.300  793.304
  18.400  849.950
  18.500  770.570
  18.600  699.818
  18.700  857.704
  18.800  688.225
  18.900  792.003
  19.000  606.610
  19.100  736.599
  19.200  614.375
  19.300  680.583
  19.400  810.195
  19.500  697.986
  19.600  865.065
  19.700 1074.809
  19.800 1515.226
  19.900 2199.255
  20.000 2765.021
  20.100 2226.599
  20.200 1565.770
  20.300 1264.272
  20.400 1185.975
  20.500  873.080
  20.600 1017.567
  20.700 1202.526
  20.800 1246.809
  20.900 1110.401
  21.000  909.708
  21.100  686.353
  21.200  704.416
  21.300  871.652
  21.400  754.714
  21.500  835.278
  21.600  964.841
  21.700 1068.066
  21.800 1104.390
  21.900 1011.103
  22.000  971.703
  22.100  817.153
  22.200  918.914
  22.300  858.275
  22.400  865.211
  22.500  950.783
  22.600  901.482
  22.700  920.924
  22.800 1069.158
  22.900 1216.571
  23.000 1503.558
  23.100 1587.508
  23.200 1405.786
  23.300  982.290
  23.400  751.661
  23.500  766.107
  23.600  894.573
  23.700  991.477
  23.800 1080.545
  23.900 1384.587
  24.000 1523.326
  24.100 1537.930
  24.200 1393.834
  24.300 1035.427
  24.400 1040.320
  24.500  918.409
  24.600  858.267
  24.700  728.209
  24.800  824.422
  24.900  928.973
  25.000 1021.036
  25.100 1007.462
  25.200 1100.431
  25.300 1034.863
  25.400 1176.695
  25.500 1447.842
  25.600 1803.522
  25.700 1775.281
  25.800 1320.345
  25.900 1049.929
  26.000  844.476
  26.100  772.463
  26.200  881.678
  26.300  955.008
  26.400 1064.958
  26.500 1079.240
  26.600 1358.341
  26.700 1691.895
  26.800 2224.433
  26.900 2306.616
  27.000 1871.204
  27.100 1258.469
  27.200  981.122
  27.300 1106.599
  27.400  986.025
  27.500  842.828
  27.600  994.161
  27.700  967.154
  27.800 1030.816
  27.900 1391.974
  28.000 1589.214
  28.100 1660.232
  28.200 1300.698
  28.300 1190.468
  28.400  824.870
  28.500  759.550
  28.600  974.464
  28.700 1000.935
  28.800  794.088
  28.900  867.539
  29.000  904.621
  29.100  920.595
  29.200  765.263
  29.300  652.974
  29.400  786.285
  29.500  728.191
  29.600  703.884
  29.700  884.006
  29.800 1053.147
  29.900 1292.525
  30.000 1619.915
  30.100 1304.469
  30.200 1064.094
  30.300  789.446
  30.400  889.249
  30.500  602.414
  30.600  590.215
  30.700  604.442
  30.800  762.303
  30.900  646.745
  31.000  889.897
  31.100  856.892
  31.200 1147.043
  31.300 1451.528
  31.400 1587.155
  31.500 1434.819
  31.600 1574.205
  31.700 1392.389
  31.800 1301.574
  31.900 1099.271
  32.000 1120.064
  32.100 1157.601
  32.200 1162.880
  32.300 1013.352
  32.400  723.719
  32.500  684.883
  32.600  854.513
  32.700  714.088
  32.800  567.832
  32.900  829.691
  33.000  768.944
  33.100  814.931
  33.200  675.017
  33.300  719.658
  33.400  667.578
  33.500  634.693
  33.600  495.555
  33.700  686.358
  33.800  591.255
  33.900  737.218
  34.000  780.720
  34.100  841.713
  34.200  770.044
  34.300  665.066
  34.400  813.757
  34.500  844.255
  34.600 1208.495
  34.700 1492.877
  34.800 1758.564
  34.900 1691.341
  35.000 2130.129
  35.100 2781.385
  35.200 2890.275
  35.300 2062.682
  35.400 1455.253
  35.500  874.843
  35.600  806.393
  35.700  833.990
  35.800  814.079
  35.900  771.688
  36.000  754.638
  36.100  963.544
  36.200  813.907
  36.300  826.819
  36.400  947.256
  36.500  851.297
  36.600 1053.512
  36.700  980.158
  36.800 1054.005
  36.900 1037.980
  37.000  877.910
  37.100  875.511
  37.200  834.992
  37.300  630.538
  37.400  768.822
  37.500  953.570
  37.600  960.174
  37.700  946.558
  37.800 1209.917
  37.900 1293.313
  38.000 1234.924
  38.100 1083.367
  38.200  839.354
  38.300  801.648
  38.400  871.025
  38.500  695.902
  38.600  635.185
  38.700  561.791
  38.800  484.259
  38.900  641.802
  39.000  609.635
  39.100  649.755
  39.200  541.651
  39.300  692.853
  39.400  512.569
  39.500  590.867
  39.600  533.684
  39.700  663.626
  39.800  748.123
  39.900  740.910
  40.000  683.839
  40.100  724.555
  40.200  773.891
  40.300  883.259
  40.400  822.129
  40.500  885.163
  40.600  721.093
  40.700  772.080
  40.800  930.403
  40.900  837.146
  41.000  858.709
  41.100  711.076
  41.200  710.021
  41.300  737.891
  41.400  890.353
  41.500  665.414
  41.600  843.919
  41.700  743.891
  41.800  780.961
  41.900  734.074
  42.000  785.959
  42.100  849.044
  42.200  950.153
  42.300  986.991
  42.400  885.624
  42.500  936.144
  42.600 1122.117
  42.700  998.254
  42.800  764.641
  42.900  559.980
  43.000  590.776
  43.100  602.486
  43.200  677.521
  43.300  433.955
  43.400  630.256
  43.500  647.942
  43.600  628.722
  43.700  597.497
  43.800  560.094
  43.900  596.846
  44.000  557.314