Folder: Linux_class/xrd_output/random_files (part 12)

File: 2M1-std-44.TXT
Sample
Comments
Filename	C:\WINDMAX\DATA\USERS\GEO\GEO_ER~1\Pyrenees\BULKMA~1\2M1-std2.raw
Goniometer	Ultima IV In-plane
Attachment	Auto sample changer (10 samples)
ScanningMode	2Theta/Theta
ScanningType	Continuos Scanning
X-Ray	40kV/44mA
DivSlit	2/3deg.
DivH.L.Slit	10mm
SctSlit	2/3deg.
RecSlit	0.3mm
Start	16
Stop	44
Step	0.02
Speed	0.3
Offset	0
  16.000  612.541
  16.100  773.675
  16.200  801.722
  16.300  598.774
  16.400  732.655
  16.500  523.362
  16.600  543.007
  16.700  650.731
  16.800  765.561
  16.900  521.755
  17.000  581.442
  17.100  690.888
  17.200  544.735
  17.300  566.447
  17.400  807.351
  17.500  626.341
  17.600  740.011
  17.700  891.022
  17.800 1196.492
  17.900 1434.841
  18.000 1367.039
  18.100 1117.827
  18.200 1050.346
  18.300  700.657
  18.400  737.354
  18.500  810.001
  18.600  653.308
  18.700  856.238
  18.800  840.797
  18.900  817.490
  19.000  713.706
  19.100  625.452
  19.200  682.525
  19.300  855.481
  19.400  819.319
  19.500  688.755
  19.600  804.040
  19.700 1229.092
  19.800 1615.439
  19.900 2189.235
  20.000 2568.883
  20.100 2267.166
  20.200 1393.859
  20.300 1292.178
  20.400 1037.681
  20.500  904.657
  20.600  903.989
  20.700 1108.244
  20.800 1125.923
  20.900 1086.567
  21.000  904.228
  21.100  849.037
  21.200  798.353
  21.300  680.210
  21.400  943.597
  21.500  834.327
  21.600  925.887
  21.700 1024.227
  21.800 1076.840
  21.900 1012.232
  22.000  980.238
  22.100  713.427
  22.200  779.561
  22.300  733.643
  22.400  837.787
  22.500  869.544
  22.600  934.375
  22.700  980.957
  22.800  952.968
  22.900 1288.143
  23.000 1485.004
  23.100 1551.052
  23.200 1208.980
  23.300  985.184
  23.400  977.482
  23.500  746.248
  23.600  822.858
  23.700  940.986
  23.800 1094.730
  23.900 1459.914
  24.000 1484.203
  24.100 1482.926
  24.200 1397.657
  24.300 1098.254
  24.400  884.835
  24.500  856.015
  24.600  885.671
  24.700  829.519
  24.800  924.156
  24.900  828.299
  25.000  780.835
  25.100 1105.512
  25.200 1105.432
  25.300 1270.269
  25.400 1100.131
  25.500 1400.996
  25.600 1737.752
  25.700 1549.837
  25.800 1358.346
  25.900  981.592
  26.000  941.341
  26.100  985.480
  26.200  833.423
  26.300  985.666
  26.400  948.591
  26.500 1050.844
  26.600 1484.739
  26.700 1900.637
  26.800 2288.270
  26.900 2378.352
  27.000 1744.550
  27.100 1412.812
  27.200  964.461
  27.300 1076.417
  27.400  945.894
  27.500  831.780
  27.600 1053.858
  27.700 1100.944
  27.800 1168.767
  27.900 1507.468
  28.000 1777.827
  28.100 1641.452
  28.200 1246.743
  28.300 1067.654
  28.400  844.959
  28.500  881.928
  28.600  894.542
  28.700  829.864
  28.800  933.248
  28.900  826.729
  29.000  794.323
  29.100  779.340
  29.200  838.615
  29.300  667.382
  29.400  695.092
  29.500  829.869
  29.600  811.970
  29.700  972.470
  29.800 1136.692
  29.900 1404.299
  30.000 1426.267
  30.100 1438.913
  30.200 1067.204
  30.300  936.393
  30.400  700.860
  30.500  649.175
  30.600  703.289
  30.700  652.746
  30.800  812.566
  30.900  632.262
  31.000  778.697
  31.100 1081.261
  31.200 1155.339
  31.300 1535.948
  31.400 1622.058
  31.500 1365.722
  31.600 1488.207
  31.700 1441.515
  31.800 1231.636
  31.900 1256.312
  32.000 1073.086
  32.100 1193.212
  32.200 1082.581
  32.300 1027.675
  32.400  735.018
  32.500  750.411
  32.600  798.268
  32.700  733.729
  32.800  754.941
  32.900  606.299
  33.000  815.455
  33.100  624.450
  33.200  781.860
  33.300  711.508
  33.400  644.493
  33.500  573.716
  33.600  628.387
  33.700  759.383
  33.800  720.078
  33.900  601.675
  34.000  803.395
  34.100  686.436
  34.200  656.039
  34.300  825.973
  34.400  797.156
  34.500  979.201
  34.600 1122.485
  34.700 1485.640
  34.800 1675.232
  34.900 1704.135
  35.000 2076.447
  35.100 2775.416
  35.200 2781.617
  35.300 2058.341
  35.400 1372.978
  35.500 1010.907
  35.600  868.473
  35.700  900.209
  35.800  783.817
  35.900  931.704
  36.000  903.781
  36.100  729.730
  36.200  936.015
  36.300  711.131
  36.400  804.433
  36.500 1106.401
  36.600 1135.938
  36.700 1030.137
  36.800 1074.241
  36.900  940.117
  37.000  856.144
  37.100  861.768
  37.200  766.563
  37.300  854.289
  37.400  877.822
  37.500  974.565
  37.600 1030.911
  37.700 1013.451
  37.800 1178.910
  37.900 1165.538
  38.000 1226.008
  38.100  886.041
  38.200  914.274
  38.300  857.327
  38.400  804.323
  38.500  772.567
  38.600  671.403
  38.700  495.107
  38.800  549.329
  38.900  524.370
  39.000  580.317
  39.100  479.215
  39.200  537.128
  39.300  495.988
  39.400  619.927
  39.500  682.930
  39.600  716.834
  39.700  550.270
  39.800  659.283
  39.900  711.954
  40.000  795.982
  40.100  819.537
  40.200  762.773
  40.300  912.346
  40.400  893.424
  40.500  730.265
  40.600  853.197
  40.700  644.323
  40.800  800.662
  40.900  993.953
  41.000  781.952
  41.100  721.962
  41.200  877.084
  41.300  712.087
  41.400  902.802
  41.500  814.878
  41.600  740.091
  41.700  612.867
  41.800  539.647
  41.900  686.473
  42.000  747.056
  42.100  869.363
  42.200  793.701
  42.300  920.552
  42.400  917.779
  42.500 1113.125
  42.600 1134.751
  42.700  913.574
  42.800  770.376
  42.900  638.969
  43.000  733.462
  43.100  501.997
  43.200  610.913
  43.300  443.224
  43.400  584.237
  43.500  637.554
  43.600  501.266
  43.700  621.665
  43.800  498.811
  43.900  577.844
  44.000  684.638

File: 2M1-std-45.TXT
Sample
Comments
Filename	C:\WINDMAX\DATA\USERS\GEO\GEO_ER~1\Pyrenees\BULKMA~1\2M1-std2.raw
Goniometer	Ultima IV In-plane
Attachment	Auto sample changer (10 samples)
ScanningMode	2Theta/Theta
ScanningType	Continuos Scanning
X-Ray	40kV/44mA
DivSlit	2/3deg.
DivH.L.Slit	10mm
SctSlit	2/3deg.
RecSlit	0.3mm
Start	16
Stop	44
Step	0.02
Speed	0.3
Offset	0
  16.000  724.900
  16.100  791.019
  16.200  614.731
  16.300  658.714
  16.400  587.887
  16.500  764.980
  16.600  599.930
  16.700  604.009
  16.800  599.239
  16.900  625.941
  17.000  600.290
  17.100  660.272
  17.200  583.314
  17.300  703.767
  17.400  692.821
  17.500  608.276
  17.600  858.151
  17.700 1031.566
  17.800 1201.853
  17.900 1323.177
  18.000 1256.597
  18.100 1222.462
  18.200  924.873
  18.300  674.870
  18.400  858.582
  18.500  615.350
  18.600  664.357
  18.700  690.072
  18.800  736.195
  18.900  698.915
  19.000  563.456
  19.100  587.242
  19.200  688.627
  19.300  670.940
  19.400  792.068
  19.500  911.360
  19.600  804.903
  19.700 1154.827
  19.800 1593.639
  19.900 2310.050
  20.000 2650.371
  20.100 2337.550
  20.200 1588.045
  20.300 1071.771
  20.400  971.792
  20.500  986.545
  20.600 1034.920
  20.700 1081.684
  20.800 1275.748
  20.900 1193.917
  21.000  772.353
  21.100  890.503
  21.200  905.798
  21.300  882.808
  21.400  799.280
  21.500  955.708
  21.600  922.133
  21.700 1164.843
  21.800  955.036
  21.900  813.335
  22.000  746.207
  22.100  715.723
  22.200  690.201
  22.300  896.222
  22.400  847.923
  22.500  998.374
  22.600 1039.654
  22.700  799.613
  22.800  939.235
  22.900 1126.518
  23.000 1648.060
  23.100 1621.428
  23.200 1330.275
  23.300 1164.463
  23.400  965.489
  23.500  889.233
  23.600  897.275
  23.700 1135.089
  23.800 1244.907
  23.900 1430.592
  24.000 1473.946
  24.100 1572.637
  24.200 1362.993
  24.300  984.066
  24.400  993.560
  24.500  752.740
  24.600  833.008
  24.700  805.276
  24.800  857.981
  24.900  881.462
  25.000  827.822
  25.100 1005.577
  25.200 1112.184
  25.300 1106.605
  25.400 1101.517
  25.500 1351.287
  25.600 1642.534
  25.700 1669.364
  25.800 1257.639
  25.900  939.468
  26.000 1036.882
  26.100  952.048
  26.200  820.235
  26.300  911.099
  26.400  959.381
  26.500 1017.344
  26.600 1440.043
  26.700 1757.605
  26.800 2155.196
  26.900 2386.131
  27.000 1987.208
  27.100 1491.732
  27.200 1194.247
  27.300 1052.844
  27.400  780.267
  27.500  895.867
  27.600  892.783
  27.700  953.269
  27.800 1233.347
  27.900 1408.603
  28.000 1680.325
  28.100 1567.785
  28.200 1299.129
  28.300 1114.282
  28.400  879.748
  28.500  784.181
  28.600  986.770
  28.700 1058.387
  28.800  826.390
  28.900  874.974
  29.000  757.732
  29.100  936.120
  29.200  792.405
  29.300  663.474
  29.400  806.240
  29.500  718.631
  29.600  888.371
  29.700  970.759
  29.800  958.748
  29.900 1443.965
  30.000 1669.279
  30.100 1298.046
  30.200 1194.920
  30.300  808.187
  30.400  793.046
  30.500  802.985
  30.600  737.328
  30.700  739.697
  30.800  626.728
  30.900  736.825
  31.000  812.812
  31.100 1079.916
  31.200 1087.856
  31.300 1323.313
  31.400 1544.299
  31.500 1558.454
  31.600 1351.198
  31.700 1409.443
  31.800 1235.400
  31.900 1188.752
  32.000  923.535
  32.100 1009.835
  32.200 1202.711
  32.300  952.908
  32.400  970.480
  32.500  678.305
  32.600  754.883
  32.700  645.473
  32.800  626.656
  32.900  575.926
  33.000  700.959
  33.100  627.096
  33.200  720.244
  33.300  735.406
  33.400  699.187
  33.500  638.496
  33.600  499.406
  33.700  787.250
  33.800  561.416
  33.900  760.472
  34.000  638.881
  34.100  717.209
  34.200  881.443
  34.300  604.131
  34.400  783.804
  34.500  923.859
  34.600 1165.930
  34.700 1606.401
  34.800 1617.038
  34.900 1873.164
  35.000 2105.264
  35.100 2547.424
  35.200 2683.052
  35.300 2188.131
  35.400 1457.770
  35.500  911.225
  35.600  907.234
  35.700  874.490
  35.800  741.496
  35.900  809.541
  36.000  953.136
  36.100  823.911
  36.200  843.160
  36.300  755.619
  36.400  830.189
  36.500 1053.716
  36.600 1116.123
  36.700 1180.851
  36.800 1107.130
  36.900 1073.332
  37.000  991.349
  37.100  680.630
  37.200  792.989
  37.300  691.055
  37.400  799.079
  37.500  743.278
  37.600  894.219
  37.700  921.020
  37.800 1196.192
  37.900 1290.209
  38.000 1123.283
  38.100 1065.149
  38.200  916.738
  38.300  913.884
  38.400  726.284
  38.500  579.191
  38.600  758.589
  38.700  590.685
  38.800  492.368
  38.900  583.689
  39.000  582.876
  39.100  712.085
  39.200  556.115
  39.300  647.607
  39.400  608.711
  39.500  622.406
  39.600  558.394
  39.700  635.177
  39.800  656.118
  39.900  549.539
  40.000  660.663
  40.100  816.430
  40.200  737.349
  40.300  861.615
  40.400  876.235
  40.500  866.379
  40.600  766.225
  40.700  720.831
  40.800  857.201
  40.900  998.962
  41.000  848.011
  41.100  832.139
  41.200  740.295
  41.300  898.658
  41.400  732.570
  41.500  697.836
  41.600  873.615
  41.700  608.778
  41.800  774.795
  41.900  611.014
  42.000  772.412
  42.100  792.407
  42.200  961.352
  42.300  904.395
  42.400 1096.506
  42.500  936.787
  42.600  924.691
  42.700 1019.760
  42.800  778.320
  42.900  679.020
  43.000  695.264
  43.100  489.466
  43.200  609.983
  43.300  438.965
  43.400  668.259
  43.500  446.435
  43.600  494.818
  43.700  553.228
  43.800  651.757
  43.900  577.043
  44.000  650.820

File: 2M1-std-46.TXT
Sample
Comments
Filename	C:\WINDMAX\DATA\USERS\GEO\GEO_ER~1\Pyrenees\BULKMA~1\2M1-std2.raw
Goniometer	Ultima IV In-plane
Attachment	Auto sample changer (10 samples)
ScanningMode	2Theta/Theta
ScanningType	Continuos Scanning
X-Ray	40kV/44mA
DivSlit	2/3deg.
DivH.L.Slit	10mm
SctSlit	2/3deg.
RecSlit	0.3mm
Start	16
Stop	44
Step	0.02
Speed	0.3
Offset	0
  16.000  655.495
  16.100  783.093
  16.200  821.343
  16.300  729.853
  16.400  516.306
  16.500  605.851
  16.600  733.498
  16.700  762.554
  16.800  662.250
  16.900  601.026
  17.000  587.612
  17.100  642.984
  17.200  683.336
  17.300  641.825
  17.400  619.477
  17.500  612.842
  17.600  895.647
  17.700 1031.383
  17.800  995.577
  17.900 1223.242
  18.000 1444.816
  18.100 1096.969
  18.200  912.352
  18.300  678.453
  18.400  670.543
  18.500  787.222
  18.600  694.806
  18.700  671.381
  18.800  668.987
  18.900  692.998
  19.000  603.434
  19.100  734.905
  19.200  828.057
  19.300  779.600
  19.400  803.131
  19.500  762.358
  19.600  878.159
  19.700 1194.997
  19.800 1434.766
  19.900 2260.734
  20.000 2763.217
  20.100 2437.180
  20.200 1580.873
  20.300 1237.990
  20.400 1078.673
  20.500 1043.439
  20.600 1073.553
  20.700 1150.176
  20.800 1277.503
  20.900 1027.467
  21.000  816.211
  21.100  738.332
  21.200  693.848
  21.300  761.476
  21.400  731.753
  21.500  859.182
  21.600 1029.143
  21.700 1146.269
  21.800 1028.619
  21.900  920.127
  22.000  881.876
  22.100  800.922
  22.200  858.207
  22.300  883.112
  22.400  857.891
  22.500  970.839
  22.600 1016.798
  22.700  938.938
  22.800 1037.791
  22.900 1360.898
  23.000 1585.386
  23.100 1629.888
  23.200 1241.740
  23.300 1131.385
  23.400  970.190
  23.500  781.353
  23.600  904.301
  23.700  906.816
  23.800 1088.901
  23.900 1319.763
  24.000 1658.976
  24.100 1497.981
  24.200 1194.012
  24.300 1047.338
  24.400 1065.160
  24.500  821.214
  24.600  792.232
  24.700  765.405
  24.800  848.017
  24.900  848.770
  25.000  783.657
  25.100 1094.059
  25.200  982.473
  25.300 1131.682
  25.400 1079.162
  25.500 1511.057
  25.600 1636.555
  25.700 1601.135
  25.800 1276.042
  25.900 1072.156
  26.000  915.944
  26.100  953.337
  26.200  875.718
  26.300  823.374
  26.400  856.147
  26.500 1161.880
  26.600 1502.922
  26.700 1745.229
  26.800 2284.348
  26.900 2452.599
  27.000 1790.563
  27.100 1468.660
  27.200  996.704
  27.300  894.622
  27.400  954.270
  27.500  938.525
  27.600  914.626
  27.700  985.026
  27.800 1047.037
  27.900 1555.721
  28.000 1811.709
  28.100 1644.806
  28.200 1315.224
  28.300 1154.278
  28.400  933.590
  28.500  909.634
  28.600  857.998
  28.700  880.502
  28.800  997.988
  28.900  997.773
  29.000  870.934
  29.100  929.767
  29.200  684.971
  29.300  771.590
  29.400  682.817
  29.500  724.295
  29.600  760.543
  29.700  977.295
  29.800 1036.309
  29.900 1404.502
  30.000 1608.355
  30.100 1511.527
  30.200 1263.116
  30.300 1010.705
  30.400  694.424
  30.500  830.270
  30.600  665.360
  30.700  591.515
  30.800  829.597
  30.900  776.018
  31.000  792.564
  31.100  868.608
  31.200 1197.450
  31.300 1317.134
  31.400 1459.012
  31.500 1483.188
  31.600 1538.341
  31.700 1326.013
  31.800 1307.419
  31.900 1044.047
  32.000 1058.067
  32.100 1174.691
  32.200 1098.480
  32.300 1150.182
  32.400  809.466
  32.500  784.631
  32.600  615.770
  32.700  799.590
  32.800  695.999
  32.900  829.659
  33.000  676.332
  33.100  748.332
  33.200  604.749
  33.300  550.308
  33.400  627.037
  33.500  538.929
  33.600  720.506
  33.700  646.607
  33.800  719.664
  33.900  740.330
  34.000  615.920
  34.100  701.502
  34.200  774.638
  34.300  756.527
  34.400  699.630
  34.500  789.769
  34.600 1147.659
  34.700 1499.843
  34.800 1661.039
  34.900 1876.419
  35.000 1946.447
  35.100 2631.998
  35.200 2695.542
  35.300 1965.731
  35.400 1480.523
  35.500  912.214
  35.600  770.699
  35.700  926.532
  35.800  801.647
  35.900  860.546
  36.000  729.755
  36.100  883.352
  36.200  886.356
  36.300  694.531
  36.400  891.636
  36.500  967.913
  36.600  985.124
  36.700 1027.960
  36.800  927.357
  36.900  934.110
  37.000 1032.215
  37.100  741.928
  37.200  709.301
  37.300  846.409
  37.400  810.146
  37.500  960.693
  37.600  992.516
  37.700 1023.997
  37.800 1103.936
  37.900 1162.263
  38.000 1141.438
  38.100 1027.515
  38.200  865.267
  38.300  809.589
  38.400  642.808
  38.500  595.442
  38.600  570.828
  38.700  687.790
  38.800  628.166
  38.900  572.333
  39.000  537.142
  39.100  702.297
  39.200  723.836
  39.300  650.778
  39.400  704.001
  39.500  542.759
  39.600  591.070
  39.700  696.459
  39.800  666.519
  39.900  777.139
  40.000  667.830
  40.100  809.143
  40.200  790.254
  40.300  843.121
  40.400  813.830
  40.500  903.057
  40.600  899.419
  40.700  733.688
  40.800  804.535
  40.900  811.944
  41.000  974.187
  41.100  860.416
  41.200  871.411
  41.300  747.670
  41.400  819.237
  41.500  677.270
  41.600  724.722
  41.700  727.934
  41.800  633.231
  41.900  595.450
  42.000  772.673
  42.100  916.919
  42.200  892.680
  42.300  965.559
  42.400 1048.684
  42.500 1079.993
  42.600 1082.049
  42.700  971.218
  42.800  727.884
  42.900  760.213
  43.000  564.795
  43.100  541.163
  43.200  548.268
  43.300  446.777
  43.400  536.824
  43.500  669.402
  43.600  568.305
  43.700  488.032
  43.800  658.076
  43.900  678.256
  44.000  690.787

File: 2M1-std-47.TXT
Sample
Comments
Filename	C:\WINDMAX\DATA\USERS\GEO\GEO_ER~1\Pyrenees\BULKMA~1\2M1-std2.raw
Goniometer	Ultima IV In-plane
Attachment	Auto sample changer (10 samples)
ScanningMode	2Theta/Theta
ScanningType	Continuos Scanning
X-Ray	40kV/44mA
DivSlit	2/3deg.
DivH.L.Slit	10mm
SctSlit	2/3deg.
RecSlit	0.3mm
Start	16
Stop	44
Step	0.02
Speed	0.3
Offset	0
  16.000  726.109
  16.100  698.468
  16.200  595.285
  16.300  647.591
  16.400  678.601
  16.500  709.098
  16.600  530.623
  16.700  671.983
  16.800  620.222
  16.900  723.721
  17.000  595.306
  17.100  596.278
  17.200  572.255
  17.300  672.856
  17.400  671.635
  17.500  635.033
  17.600  835.002
  17.700  895.466
  17.800 1092.069
  17.900 1372.316
  18.000 1262.879
  18.100 1260.627
  18.200  847.658
  18.300  738.789
  18.400  781.163
  18.500  684.059
  18.600  674.682
  18.700  753.313
  18.800  685.790
  18.900  657.566
  19.000  751.763
  19.100  596.651
  19.200  819.519
  19.300  852.661
  19.400  666.225
  19.500  847.993
  19.600  900.332
  19.700 1109.387
  19.800 1540.937
  19.900 2145.615
  20.000 2555.823
  20.100 2269.577
  20.200 1462.241
  20.300 1085.452
  20.400 1154.432
  20.500  941.417
  20.600  876.956
  20.700 1070.411
  20.800 1171.668
  20.900 1063.963
  21.000  817.773
  21.100  726.106
  21.200  667.370
  21.300  730.794
  21.400  725.537
  21.500  878.384
  21.600 1058.728
  21.700 1150.273
  21.800 1093.910
  21.900  868.730
  22.000  965.954
  22.100  924.612
  22.200  760.339
  22.300  901.899
  22.400  823.040
  22.500  785.840
  22.600  881.295
  22.700  979.215
  22.800  904.968
  22.900 1309.349
  23.000 1645.890
  23.100 1500.697
  23.200 1312.448
  23.300  930.300
  23.400  801.261
  23.500  910.707
  23.600  910.264
  23.700 1025.673
  23.800 1177.841
  23.900 1387.319
  24.000 1556.716
  24.100 1329.628
  24.200 1288.808
  24.300 1171.574
  24.400 1074.149
  24.500  840.488
  24.600  893.029
  24.700  769.956
  24.800  700.039
  24.900  866.730
  25.000 1024.718
  25.100  976.625
  25.200 1202.074
  25.300 1079.026
  25.400 1319.673
  25.500 1354.510
  25.600 1735.240
  25.700 1538.055
  25.800 1364.095
  25.900 1091.409
  26.000  832.686
  26.100  902.258
  26.200  739.244
  26.300 1004.604
  26.400  914.524
  26.500 1014.845
  26.600 1311.594
  26.700 1869.720
  26.800 2304.790
  26.900 2377.199
  27.000 1757.801
  27.100 1374.573
  27.200  961.641
  27.300  890.862
  27.400  999.555
  27.500 1016.708
  27.600 1049.316
  27.700  960.544
  27.800 1138.428
  27.900 1570.956
  28.000 1622.538
  28.100 1470.525
  28.200 1358.475
  28.300 1031.891
  28.400  853.232
  28.500  899.423
  28.600  911.267
  28.700 1029.918
  28.800  816.804
  28.900  792.576
  29.000  741.299
  29.100  965.846
  29.200  675.442
  29.300  651.009
  29.400  779.111
  29.500  848.892
  29.600  736.407
  29.700 1029.080
  29.800 1089.854
  29.900 1215.440
  30.000 1479.197
  30.100 1533.664
  30.200 1146.600
  30.300  905.233
  30.400  860.786
  30.500  618.391
  30.600  766.837
  30.700  645.091
  30.800  678.965
  30.900  843.866
  31.000  858.270
  31.100  932.291
  31.200 1170.809
  31.300 1440.897
  31.400 1665.386
  31.500 1572.470
  31.600 1445.827
  31.700 1368.441
  31.800 1307.934
  31.900 1193.265
  32.000 1098.891
  32.100 1087.668
  32.200 1219.485
  32.300 1197.853
  32.400  889.858
  32.500  850.032
  32.600  656.816
  32.700  585.617
  32.800  765.226
  32.900  584.675
  33.000  721.554
  33.100  572.579
  33.200  578.836
  33.300  644.978
  33.400  584.024
  33.500  664.329
  33.600  657.793
  33.700  639.657
  33.800  639.177
  33.900  563.598
  34.000  774.654
  34.100  608.543
  34.200  799.173
  34.300  849.166
  34.400  738.735
  34.500 1023.311
  34.600 1087.315
  34.700 1615.020
  34.800 1803.118
  34.900 1674.869
  35.000 2054.277
  35.100 2590.382
  35.200 2850.135
  35.300 2035.563
  35.400 1312.010
  35.500 1076.983
  35.600  848.828
  35.700  781.223
  35.800  680.461
  35.900  847.460
  36.000  894.713
  36.100  836.826
  36.200  911.656
  36.300  874.184
  36.400  811.154
  36.500  975.685
  36.600 1090.291
  36.700 1144.966
  36.800 1098.472
  36.900  928.199
  37.000  992.586
  37.100  817.837
  37.200  904.047
  37.300  657.166
  37.400  883.557
  37.500  816.055
  37.600  984.972
  37.700  916.168
  37.800 1008.333
  37.900 1262.210
  38.000 1291.509
  38.100 1052.045
  38.200  883.236
  38.300  831.109
  38.400  649.148
  38.500  738.914
  38.600  750.027
  38.700  737.157
  38.800  577.803
  38.900  663.735
  39.000  685.368
  39.100  547.327
  39.200  540.840
  39.300  587.723
  39.400  726.695
  39.500  726.249
  39.600  525.844
  39.700  747.630
  39.800  554.269
  39.900  533.539
  40.000  566.035
  40.100  646.195
  40.200  939.728
  40.300  977.509
  40.400  767.477
  40.500  826.235
  40.600  816.848
  40.700  660.842
  40.800  899.997
  40.900  779.372
  41.000  783.156
  41.100  755.447
  41.200  830.202
  41.300  768.997
  41.400  870.658
  41.500  807.205
  41.600  643.392
  41.700  693.328
  41.800  564.665
  41.900  624.226
  42.000  680.532
  42.100  789.705
  42.200  831.942
  42.300 1005.127
  42.400 1089.636
  42.500 1030.579
  42.600 1107.264
  42.700  882.383
  42.800  872.030
  42.900  640.200
  43.000  748.900
  43.100  581.214
  43.200  614.000
  43.300  526.465
  43.400  510.880
  43.500  500.315
  43.600  522.272
  43.700  506.037
  43.800  637.468
  43.900  591.292
  44.000  672.711