Folder: Linux_class/xrd_output/random_files

Note: README.md
# Linux_class

Output files of various instruments/programs used at Umich EES dept.
Example python scrips on how to analyze and plot results.
Learn how to analyze data and make publication-quality plots with python. Also
learn basic bash navigation and file manipulation. Work more efficiently.

Week 1: Intro to the terminal, basic bash commands, VI. Vimtutor, linuxjourney. No directory to work out of

Week 2: Intalling the Anaconda package together. Work out of lists\_and\_strings. Strings,lists,file parsing, ipython interpreter.

Week 3: Work out of gephen directory. Simple scatter plotting and parsing. Intro to matplotlib and numpy.

Week 4: Work out of xrd\_outptut. Multiple subplot figures. Parsing xrd output file. ax.fill\_between. Gaussian blur from the scipy library to find peaks.

Week 5: Work out of interp\_polyfit. Use webplotdigitizer to get data from display.pdf and reproduce. Use Polygon patches, text annotation, interp1d, and polyfit.

Week 6: Work out of twin\_axes. Reproduce Spencer's scatterplot and introduce axes twinning. make\_plot.py reproduces the figure as close as possible, sams\_version shows a different concept.

Week 7: Introduce the Pandas series object and how it relates to the 
dataframe object. Also loose ends with vimrc, bashrc, ipython startup,chmod. 
Work out of pandas\_intro and rc\_files.

Week 8: Introduce and play around with the sympy library. Mostly for fun.
Work out of sympy directory

Week 9: Spring break during the Spring semester.

Week 10: Work out of colormap directory. colormaps and gridspec.

Week 11: Basics of git and github. Use github to download vim-airline. Use github\_intro as a test folder for this.

Week 12: hdf5 and h5py

Week 13: argparser

Week 14: modules and intro to classes. Use mendeleev as an example. Possible neutron scattering?

Week 15: Back to bash! bash scripting. Explore advanced bash script techniques.

File: 2M1-std-0.TXT
Sample
Comments
Filename	C:\WINDMAX\DATA\USERS\GEO\GEO_ER~1\Pyrenees\BULKMA~1\2M1-std2.raw
Goniometer	Ultima IV In-plane
Attachment	Auto sample changer (10 samples)
ScanningMode	2Theta/Theta
ScanningType	Continuos Scanning
X-Ray	40kV/44mA
DivSlit	2/3deg.
DivH.L.Slit	10mm
SctSlit	2/3deg.
RecSlit	0.3mm
Start	16
Stop	44
Step	0.02
Speed	0.3
Offset	0
  16.000  667.632
  16.100  662.559
  16.200  586.931
  16.300  613.566
  16.400  591.056
  16.500  553.750
  16.600  512.798
  16.700  690.883
  16.800  683.076
  16.900  687.153
  17.000  520.807
  17.100  601.476
  17.200  728.702
  17.300  555.093
  17.400  564.891
  17.500  731.315
  17.600  659.827
  17.700  967.000
  17.800 1060.442
  17.900 1308.603
  18.000 1197.089
  18.100 1175.884
  18.200 1067.334
  18.300  731.924
  18.400  623.638
  18.500  846.213
  18.600  681.486
  18.700  638.628
  18.800  702.001
  18.900  788.333
  19.000  685.228
  19.100  787.638
  19.200  605.610
  19.300  776.658
  19.400  794.961
  19.500  884.061
  19.600  912.314
  19.700 1049.930
  19.800 1536.449
  19.900 2284.812
  20.000 2720.783
  20.100 2306.309
  20.200 1619.273
  20.300 1183.788
  20.400 1081.034
  20.500  842.675
  20.600 1060.298
  20.700 1180.082
  20.800 1288.641
  20.900 1137.759
  21.000  924.237
  21.100  703.267
  21.200  832.447
  21.300  879.480
  21.400  856.595
  21.500 1035.562
  21.600 1113.854
  21.700  973.245
  21.800 1050.582
  21.900  901.530
  22.000  943.318
  22.100  818.615
  22.200  910.718
  22.300  730.374
  22.400  938.178
  22.500  877.515
  22.600  915.713
  22.700 1045.241
  22.800  968.286
  22.900 1354.251
  23.000 1651.134
  23.100 1721.010
  23.200 1386.662
  23.300 1026.747
  23.400  914.097
  23.500  773.765
  23.600  830.455
  23.700  941.564
  23.800 1180.212
  23.900 1433.119
  24.000 1627.332
  24.100 1486.947
  24.200 1201.039
  24.300 1110.577
  24.400 1045.161
  24.500  739.307
  24.600  692.409
  24.700  872.435
  24.800  905.917
  24.900  803.099
  25.000  962.411
  25.100  948.752
  25.200 1003.268
  25.300 1235.889
  25.400 1082.853
  25.500 1463.602
  25.600 1664.411
  25.700 1658.495
  25.800 1318.136
  25.900 1107.066
  26.000  999.101
  26.100  827.440
  26.200  801.324
  26.300  953.299
  26.400  969.868
  26.500 1225.372
  26.600 1430.814
  26.700 1948.503
  26.800 2365.617
  26.900 2250.186
  27.000 1968.801
  27.100 1435.771
  27.200 1135.183
  27.300 1055.292
  27.400  847.642
  27.500 1015.495
  27.600  999.411
  27.700 1049.552
  27.800 1238.342
  27.900 1384.604
  28.000 1754.722
  28.100 1494.631
  28.200 1354.383
  28.300  972.135
  28.400 1035.606
  28.500 1019.547
  28.600  841.301
  28.700 1012.717
  28.800  798.134
  28.900 1003.040
  29.000  754.723
  29.100  786.803
  29.200  853.489
  29.300  669.058
  29.400  682.340
  29.500  742.334
  29.600  770.568
  29.700  775.144
  29.800 1158.739
  29.900 1426.585
  30.000 1525.740
  30.100 1476.638
  30.200 1163.147
  30.300  819.387
  30.400  750.058
  30.500  822.847
  30.600  735.624
  30.700  642.748
  30.800  657.039
  30.900  652.928
  31.000  926.889
  31.100  867.219
  31.200 1108.876
  31.300 1297.419
  31.400 1607.720
  31.500 1476.754
  31.600 1579.828
  31.700 1546.198
  31.800 1284.659
  31.900 1135.496
  32.000 1127.614
  32.100 1012.881
  32.200 1286.744
  32.300 1183.743
  32.400  879.256
  32.500  883.398
  32.600  817.732
  32.700  647.130
  32.800  705.929
  32.900  663.668
  33.000  823.636
  33.100  787.155
  33.200  799.102
  33.300  764.042
  33.400  543.195
  33.500  507.937
  33.600  630.987
  33.700  624.966
  33.800  728.516
  33.900  575.882
  34.000  609.732
  34.100  735.869
  34.200  766.066
  34.300  777.123
  34.400  834.267
  34.500  920.182
  34.600 1194.247
  34.700 1509.254
  34.800 1702.231
  34.900 1895.765
  35.000 2042.687
  35.100 2769.090
  35.200 2776.379
  35.300 1971.336
  35.400 1302.078
  35.500 1129.833
  35.600  901.565
  35.700  693.251
  35.800  721.068
  35.900  856.999
  36.000  899.304
  36.100  893.837
  36.200  943.459
  36.300  941.365
  36.400  837.915
  36.500 1096.934
  36.600 1000.625
  36.700 1196.216
  36.800 1046.987
  36.900 1005.773
  37.000  930.139
  37.100  913.968
  37.200  723.005
  37.300  820.740
  37.400  934.280
  37.500  828.271
  37.600  817.223
  37.700  950.992
  37.800 1222.471
  37.900 1113.349
  38.000 1098.549
  38.100  901.380
  38.200  882.968
  38.300  824.779
  38.400  784.953
  38.500  695.796
  38.600  571.060
  38.700  681.676
  38.800  608.594
  38.900  679.251
  39.000  684.142
  39.100  701.029
  39.200  575.925
  39.300  679.475
  39.400  581.596
  39.500  550.919
  39.600  556.762
  39.700  506.817
  39.800  529.357
  39.900  777.650
  40.000  794.302
  40.100  776.875
  40.200  975.274
  40.300  877.815
  40.400  769.899
  40.500  855.671
  40.600  736.218
  40.700  859.035
  40.800  702.146
  40.900  984.075
  41.000  818.088
  41.100  958.561
  41.200  835.596
  41.300  663.234
  41.400  747.108
  41.500  745.019
  41.600  646.169
  41.700  770.350
  41.800  553.666
  41.900  706.990
  42.000  678.719
  42.100  742.848
  42.200  945.809
  42.300 1082.943
  42.400  875.568
  42.500 1001.473
  42.600  934.811
  42.700 1015.822
  42.800  794.701
  42.900  542.588
  43.000  523.412
  43.100  534.092
  43.200  529.585
  43.300  648.692
  43.400  596.322
  43.500  626.714
  43.600  576.886
  43.700  586.408
  43.800  665.628
  43.900  720.644
  44.000  723.953

File: 2M1-std-1.TXT
Sample
Comments
Filename	C:\WINDMAX\DATA\USERS\GEO\GEO_ER~1\Pyrenees\BULKMA~1\2M1-std2.raw
Goniometer	Ultima IV In-plane
Attachment	Auto sample changer (10 samples)
ScanningMode	2Theta/Theta
ScanningType	Continuos Scanning
X-Ray	40kV/44mA
DivSlit	2/3deg.
DivH.L.Slit	10mm
SctSlit	2/3deg.
RecSlit	0.3mm
Start	16
Stop	44
Step	0.02
Speed	0.3
Offset	0
  16.000  784.768
  16.100  829.045
  16.200  713.137
  16.300  705.758
  16.400  540.204
  16.500  668.490
  16.600  755.410
  16.700  712.552
  16.800  530.260
  16.900  596.877
  17.000  627.566
  17.100  527.213
  17.200  575.190
  17.300  692.804
  17.400  795.125
  17.500  801.310
  17.600  709.748
  17.700  967.512
  17.800 1088.775
  17.900 1404.207
  18.000 1218.021
  18.100 1073.228
  18.200  919.198
  18.300  838.807
  18.400  710.115
  18.500  633.133
  18.600  840.350
  18.700  847.243
  18.800  852.054
  18.900  580.926
  19.000  564.041
  19.100  613.451
  19.200  825.210
  19.300  775.069
  19.400  872.396
  19.500  800.407
  19.600 1056.453
  19.700 1251.040
  19.800 1451.241
  19.900 2097.659
  20.000 2648.149
  20.100 2434.446
  20.200 1429.504
  20.300 1177.785
  20.400  956.747
  20.500 1064.704
  20.600  955.131
  20.700 1020.653
  20.800 1092.579
  20.900 1153.200
  21.000  879.625
  21.100  884.556
  21.200  673.137
  21.300  860.950
  21.400  757.534
  21.500  796.325
  21.600  969.738
  21.700 1170.258
  21.800 1068.508
  21.900  895.494
  22.000  842.497
  22.100  922.223
  22.200  727.187
  22.300  707.462
  22.400  893.870
  22.500  966.690
  22.600  839.915
  22.700  956.887
  22.800 1142.345
  22.900 1143.291
  23.000 1462.929
  23.100 1737.931
  23.200 1361.997
  23.300 1125.681
  23.400  826.216
  23.500  965.118
  23.600  858.430
  23.700  958.580
  23.800 1068.504
  23.900 1424.228
  24.000 1602.248
  24.100 1517.045
  24.200 1361.814
  24.300 1016.061
  24.400 1012.302
  24.500  737.424
  24.600  721.368
  24.700  811.014
  24.800  906.780
  24.900  760.659
  25.000  785.800
  25.100 1057.917
  25.200  995.189
  25.300 1051.546
  25.400 1082.402
  25.500 1421.611
  25.600 1610.459
  25.700 1743.930
  25.800 1371.166
  25.900  886.233
  26.000  894.819
  26.100  962.765
  26.200  771.072
  26.300  795.703
  26.400  910.878
  26.500 1073.617
  26.600 1396.751
  26.700 1848.043
  26.800 2361.005
  26.900 2244.043
  27.000 1916.488
  27.100 1448.316
  27.200 1058.881
  27.300 1001.637
  27.400  909.267
  27.500  907.401
  27.600  851.089
  27.700 1067.082
  27.800 1106.944
  27.900 1335.353
  28.000 1577.972
  28.100 1644.348
  28.200 1160.446
  28.300 1014.358
  28.400 1001.814
  28.500  818.604
  28.600  936.444
  28.700 1036.316
  28.800  820.538
  28.900  858.564
  29.000  733.541
  29.100  945.079
  29.200  831.965
  29.300  704.600
  29.400  758.602
  29.500  742.585
  29.600  834.506
  29.700  790.979
  29.800 1046.395
  29.900 1370.118
  30.000 1501.759
  30.100 1304.556
  30.200 1108.415
  30.300  785.766
  30.400  929.501
  30.500  850.539
  30.600  647.605
  30.700  751.993
  30.800  674.572
  30.900  805.505
  31.000  766.959
  31.100  846.428
  31.200 1172.120
  31.300 1377.128
  31.400 1581.832
  31.500 1454.526
  31.600 1370.322
  31.700 1295.457
  31.800 1314.907
  31.900 1129.502
  32.000 1077.446
  32.100 1018.264
  32.200 1030.986
  32.300 1054.221
  32.400  756.598
  32.500  803.630
  32.600  682.229
  32.700  818.780
  32.800  733.086
  32.900  589.537
  33.000  629.740
  33.100  741.179
  33.200  606.839
  33.300  550.398
  33.400  771.970
  33.500  709.334
  33.600  698.788
  33.700  702.241
  33.800  577.997
  33.900  565.617
  34.000  796.138
  34.100  689.740
  34.200  740.466
  34.300  800.896
  34.400  735.923
  34.500  797.284
  34.600 1038.838
  34.700 1532.466
  34.800 1772.217
  34.900 1651.621
  35.000 1959.652
  35.100 2731.116
  35.200 2834.146
  35.300 2019.926
  35.400 1335.931
  35.500  963.724
  35.600  889.664
  35.700  811.920
  35.800  683.155
  35.900  730.325
  36.000  740.540
  36.100  850.776
  36.200  993.030
  36.300  774.554
  36.400  916.258
  36.500  938.930
  36.600 1016.226
  36.700  973.783
  36.800 1002.248
  36.900 1050.340
  37.000 1039.466
  37.100  924.474
  37.200  663.505
  37.300  735.931
  37.400  692.968
  37.500  851.800
  37.600 1013.274
  37.700 1074.558
  37.800 1189.212
  37.900 1139.975
  38.000 1033.101
  38.100  903.601
  38.200  757.948
  38.300  845.093
  38.400  785.768
  38.500  790.403
  38.600  584.439
  38.700  654.778
  38.800  714.308
  38.900  634.783
  39.000  671.759
  39.100  618.477
  39.200  609.993
  39.300  501.627
  39.400  494.427
  39.500  651.549
  39.600  582.783
  39.700  693.731
  39.800  545.127
  39.900  565.635
  40.000  653.804
  40.100  820.315
  40.200  841.937
  40.300  811.147
  40.400  742.517
  40.500  769.691
  40.600  869.936
  40.700  834.555
  40.800  791.629
  40.900  758.386
  41.000  853.928
  41.100  960.909
  41.200  827.238
  41.300  789.732
  41.400  837.194
  41.500  849.254
  41.600  649.429
  41.700  746.858
  41.800  630.552
  41.900  785.891
  42.000  902.512
  42.100  881.662
  42.200 1014.002
  42.300  958.584
  42.400  874.266
  42.500 1125.931
  42.600 1113.963
  42.700  985.892
  42.800  854.455
  42.900  780.453
  43.000  582.931
  43.100  578.346
  43.200  615.133
  43.300  534.420
  43.400  564.153
  43.500  607.243
  43.600  472.551
  43.700  644.232
  43.800  517.873
  43.900  494.940
  44.000  733.133

File: 2M1-std-2.TXT
Sample
Comments
Filename	C:\WINDMAX\DATA\USERS\GEO\GEO_ER~1\Pyrenees\BULKMA~1\2M1-std2.raw
Goniometer	Ultima IV In-plane
Attachment	Auto sample changer (10 samples)
ScanningMode	2Theta/Theta
ScanningType	Continuos Scanning
X-Ray	40kV/44mA
DivSlit	2/3deg.
DivH.L.Slit	10mm
SctSlit	2/3deg.
RecSlit	0.3mm
Start	16
Stop	44
Step	0.02
Speed	0.3
Offset	0
  16.000  576.214
  16.100  672.000
  16.200  743.822
  16.300  706.239
  16.400  540.788
  16.500  698.562
  16.600  756.888
  16.700  583.702
  16.800  686.782
  16.900  715.868
  17.000  710.810
  17.100  726.135
  17.200  684.179
  17.300  676.017
  17.400  703.579
  17.500  591.576
  17.600  846.596
  17.700  778.000
  17.800 1006.112
  17.900 1436.675
  18.000 1379.666
  18.100 1228.600
  18.200 1029.791
  18.300  773.422
  18.400  625.521
  18.500  606.305
  18.600  730.627
  18.700  867.622
  18.800  731.536
  18.900  810.544
  19.000  636.181
  19.100  575.899
  19.200  649.674
  19.300  705.219
  19.400  739.210
  19.500  888.173
  19.600  861.274
  19.700 1140.386
  19.800 1455.157
  19.900 2229.346
  20.000 2631.605
  20.100 2374.333
  20.200 1560.330
  20.300 1288.932
  20.400 1157.826
  20.500 1051.486
  20.600 1120.855
  20.700 1190.440
  20.800 1341.830
  20.900 1052.288
  21.000  932.557
  21.100  665.526
  21.200  833.531
  21.300  770.339
  21.400  731.891
  21.500  839.902
  21.600 1112.671
  21.700 1181.719
  21.800 1038.146
  21.900 1070.531
  22.000  750.792
  22.100  775.901
  22.200  916.386
  22.300  788.251
  22.400  774.980
  22.500  885.401
  22.600  966.304
  22.700 1050.298
  22.800 1116.327
  22.900 1288.053
  23.000 1578.742
  23.100 1623.817
  23.200 1271.578
  23.300 1123.357
  23.400  976.703
  23.500  927.218
  23.600  941.571
  23.700  933.472
  23.800 1128.219
  23.900 1419.320
  24.000 1572.831
  24.100 1575.167
  24.200 1221.500
  24.300 1126.996
  24.400 1079.330
  24.500  955.983
  24.600  903.636
  24.700  861.017
  24.800  926.568
  24.900  925.576
  25.000  853.472
  25.100  990.065
  25.200 1174.844
  25.300 1263.702
  25.400 1102.839
  25.500 1443.201
  25.600 1670.624
  25.700 1755.424
  25.800 1321.969
  25.900  994.220
  26.000  982.331
  26.100  839.024
  26.200  788.415
  26.300  867.646
  26.400 1023.652
  26.500 1172.834
  26.600 1473.939
  26.700 1749.131
  26.800 2321.055
  26.900 2411.062
  27.000 1940.513
  27.100 1355.494
  27.200  996.947
  27.300  952.727
  27.400  934.269
  27.500 1005.886
  27.600 1046.558
  27.700 1054.245
  27.800 1237.628
  27.900 1578.689
  28.000 1689.409
  28.100 1510.159
  28.200 1261.568
  28.300 1142.828
  28.400  910.582
  28.500 1011.908
  28.600  984.572
  28.700 1056.829
  28.800  907.234
  28.900  899.807
  29.000  759.557
  29.100  760.071
  29.200  764.097
  29.300  694.093
  29.400  746.386
  29.500  618.467
  29.600  876.286
  29.700  916.143
  29.800 1138.686
  29.900 1426.903
  30.000 1424.049
  30.100 1546.189
  30.200 1017.782
  30.300  992.724
  30.400  679.628
  30.500  660.180
  30.600  705.053
  30.700  591.426
  30.800  834.220
  30.900  653.216
  31.000  860.559
  31.100  996.047
  31.200 1212.017
  31.300 1471.375
  31.400 1548.741
  31.500 1527.858
  31.600 1568.411
  31.700 1508.377
  31.800 1406.455
  31.900 1205.056
  32.000 1016.298
  32.100 1059.454
  32.200 1267.322
  32.300 1089.626
  32.400  920.669
  32.500  712.097
  32.600  834.334
  32.700  631.259
  32.800  578.713
  32.900  827.061
  33.000  847.507
  33.100  609.653
  33.200  584.522
  33.300  552.017
  33.400  720.992
  33.500  596.771
  33.600  579.814
  33.700  746.832
  33.800  594.001
  33.900  665.778
  34.000  690.915
  34.100  771.999
  34.200  773.358
  34.300  652.000
  34.400  766.863
  34.500  823.507
  34.600 1189.044
  34.700 1433.056
  34.800 1558.385
  34.900 1852.792
  35.000 2136.370
  35.100 2593.723
  35.200 2771.122
  35.300 1959.623
  35.400 1471.026
  35.500 1089.444
  35.600  972.166
  35.700  877.528
  35.800  872.577
  35.900  789.634
  36.000  923.186
  36.100  732.475
  36.200  807.872
  36.300  811.794
  36.400  974.255
  36.500  854.155
  36.600  993.240
  36.700 1126.723
  36.800 1053.645
  36.900  959.286
  37.000  871.710
  37.100  831.213
  37.200  834.318
  37.300  744.374
  37.400  767.636
  37.500  965.229
  37.600  919.274
  37.700  997.951
  37.800 1118.764
  37.900 1224.016
  38.000 1271.610
  38.100  970.023
  38.200  981.182
  38.300  766.620
  38.400  707.862
  38.500  750.719
  38.600  541.718
  38.700  743.801
  38.800  583.353
  38.900  599.540
  39.000  649.706
  39.100  465.530
  39.200  573.823
  39.300  618.474
  39.400  676.954
  39.500  689.296
  39.600  606.940
  39.700  756.327
  39.800  585.766
  39.900  695.698
  40.000  688.906
  40.100  670.867
  40.200  883.647
  40.300  975.660
  40.400  974.413
  40.500  857.080
  40.600  885.551
  40.700  737.355
  40.800  716.319
  40.900  886.308
  41.000  864.603
  41.100  887.749
  41.200  717.223
  41.300  678.908
  41.400  864.713
  41.500  861.802
  41.600  851.492
  41.700  585.178
  41.800  531.077
  41.900  605.398
  42.000  711.054
  42.100  819.671
  42.200 1008.404
  42.300  856.777
  42.400  984.772
  42.500  928.829
  42.600 1043.272
  42.700 1098.419
  42.800  729.928
  42.900  621.534
  43.000  750.163
  43.100  467.833
  43.200  661.064
  43.300  615.479
  43.400  576.991
  43.500  641.856
  43.600  505.861
  43.700  601.239
  43.800  464.680
  43.900  721.816
  44.000  526.527

File: 2M1-std-3.TXT
Sample
Comments
Filename	C:\WINDMAX\DATA\USERS\GEO\GEO_ER~1\Pyrenees\BULKMA~1\2M1-std2.raw
Goniometer	Ultima IV In-plane
Attachment	Auto sample changer (10 samples)
ScanningMode	2Theta/Theta
ScanningType	Continuos Scanning
X-Ray	40kV/44mA
DivSlit	2/3deg.
DivH.L.Slit	10mm
SctSlit	2/3deg.
RecSlit	0.3mm
Start	16
Stop	44
Step	0.02
Speed	0.3
Offset	0
  16.000  713.931
  16.100  751.658
  16.200  770.232
  16.300  640.232
  16.400  532.084
  16.500  559.898
  16.600  691.211
  16.700  593.822
  16.800  769.002
  16.900  620.950
  17.000  610.463
  17.100  583.946
  17.200  761.584
  17.300  756.622
  17.400  555.008
  17.500  841.073
  17.600  661.332
  17.700  972.722
  17.800 1167.224
  17.900 1280.303
  18.000 1329.732
  18.100 1292.367
  18.200  836.494
  18.300  740.099
  18.400  693.846
  18.500  840.428
  18.600  690.833
  18.700  637.092
  18.800  636.453
  18.900  776.574
  19.000  781.996
  19.100  803.939
  19.200  725.332
  19.300  699.426
  19.400  694.765
  19.500  706.872
  19.600  991.452
  19.700 1154.749
  19.800 1488.779
  19.900 2156.890
  20.000 2603.023
  20.100 2348.926
  20.200 1445.487
  20.300 1119.408
  20.400 1059.189
  20.500  907.269
  20.600  895.853
  20.700 1114.047
  20.800 1302.106
  20.900 1083.092
  21.000  798.759
  21.100  770.822
  21.200  915.216
  21.300  718.044
  21.400  755.222
  21.500  924.827
  21.600 1142.558
  21.700 1077.143
  21.800  976.313
  21.900  935.326
  22.000  835.400
  22.100  678.082
  22.200  737.642
  22.300  810.374
  22.400  798.161
  22.500 1001.316
  22.600  913.999
  22.700  906.004
  22.800 1125.909
  22.900 1176.222
  23.000 1476.554
  23.100 1546.858
  23.200 1362.645
  23.300  976.811
  23.400  882.981
  23.500  789.061
  23.600 1003.879
  23.700 1124.559
  23.800 1229.346
  23.900 1465.756
  24.000 1522.367
  24.100 1550.744
  24.200 1202.673
  24.300 1213.165
  24.400  971.706
  24.500  890.870
  24.600  906.289
  24.700  726.691
  24.800  841.215
  24.900  853.070
  25.000  841.711
  25.100 1081.141
  25.200  998.582
  25.300 1245.676
  25.400 1166.508
  25.500 1307.161
  25.600 1603.970
  25.700 1723.267
  25.800 1176.731
  25.900 1072.580
  26.000 1003.742
  26.100  954.345
  26.200  921.536
  26.300  880.930
  26.400  902.409
  26.500 1147.664
  26.600 1301.449
  26.700 1709.720
  26.800 2278.192
  26.900 2338.416
  27.000 1816.083
  27.100 1472.094
  27.200 1120.408
  27.300 1092.863
  27.400  951.902
  27.500  830.034
  27.600  841.311
  27.700  888.671
  27.800 1040.326
  27.900 1516.709
  28.000 1788.182
  28.100 1643.467
  28.200 1217.196
  28.300 1057.622
  28.400 1029.223
  28.500  802.328
  28.600  989.593
  28.700  909.060
  28.800  890.706
  28.900  786.306
  29.000  728.040
  29.100  900.686
  29.200  868.647
  29.300  616.435
  29.400  793.964
  29.500  626.669
  29.600  839.538
  29.700  951.939
  29.800 1088.698
  29.900 1366.083
  30.000 1596.638
  30.100 1548.401
  30.200 1208.098
  30.300 1027.657
  30.400  874.932
  30.500  838.370
  30.600  735.002
  30.700  723.372
  30.800  741.810
  30.900  671.252
  31.000  881.323
  31.100  955.012
  31.200 1142.913
  31.300 1465.939
  31.400 1660.981
  31.500 1593.581
  31.600 1440.388
  31.700 1302.508
  31.800 1375.386
  31.900 1292.305
  32.000 1046.559
  32.100 1229.148
  32.200 1275.185
  32.300 1081.857
  32.400  747.615
  32.500  645.413
  32.600  790.225
  32.700  738.693
  32.800  643.662
  32.900  735.509
  33.000  820.755
  33.100  759.968
  33.200  793.537
  33.300  528.497
  33.400  777.904
  33.500  681.099
  33.600  694.521
  33.700  557.620
  33.800  737.935
  33.900  676.399
  34.000  739.155
  34.100  740.990
  34.200  864.478
  34.300  819.884
  34.400  801.645
  34.500  868.168
  34.600 1220.857
  34.700 1598.643
  34.800 1577.483
  34.900 1797.559
  35.000 2009.700
  35.100 2692.402
  35.200 2724.798
  35.300 2058.867
  35.400 1514.072
  35.500 1108.208
  35.600  767.846
  35.700  722.916
  35.800  778.715
  35.900  764.523
  36.000  753.552
  36.100  855.729
  36.200  953.030
  36.300  866.226
  36.400  761.135
  36.500  954.225
  36.600 1059.009
  36.700 1008.935
  36.800 1096.261
  36.900  990.734
  37.000  869.297
  37.100  751.931
  37.200  650.076
  37.300  891.320
  37.400  939.234
  37.500  752.242
  37.600  926.427
  37.700 1160.372
  37.800 1122.317
  37.900 1124.246
  38.000 1059.885
  38.100 1056.210
  38.200  888.626
  38.300  771.149
  38.400  738.613
  38.500  588.950
  38.600  741.764
  38.700  557.036
  38.800  690.064
  38.900  490.932
  39.000  565.645
  39.100  620.250
  39.200  697.329
  39.300  606.774
  39.400  608.937
  39.500  519.983
  39.600  702.088
  39.700  660.205
  39.800  690.173
  39.900  611.373
  40.000  587.882
  40.100  807.543
  40.200  874.269
  40.300  995.539
  40.400  839.137
  40.500  761.621
  40.600  776.174
  40.700  812.589
  40.800  823.090
  40.900  845.369
  41.000  754.631
  41.100  781.554
  41.200  912.551
  41.300  722.329
  41.400  676.338
  41.500  871.465
  41.600  808.984
  41.700  749.975
  41.800  777.740
  41.900  715.205
  42.000  781.557
  42.100  860.293
  42.200  935.253
  42.300  832.042
  42.400 1088.267
  42.500 1086.664
  42.600 1162.936
  42.700  994.271
  42.800  711.873
  42.900  694.529
  43.000  630.661
  43.100  583.690
  43.200  515.099
  43.300  449.146
  43.400  589.752
  43.500  484.740
  43.600  522.800
  43.700  638.890
  43.800  550.588
  43.900  727.158
  44.000  626.114