Folder: Linux_class/xrd_output/random_files (part 6)

File: 2M1-std-20.TXT
Sample
Comments
Filename	C:\WINDMAX\DATA\USERS\GEO\GEO_ER~1\Pyrenees\BULKMA~1\2M1-std2.raw
Goniometer	Ultima IV In-plane
Attachment	Auto sample changer (10 samples)
ScanningMode	2Theta/Theta
ScanningType	Continuos Scanning
X-Ray	40kV/44mA
DivSlit	2/3deg.
DivH.L.Slit	10mm
SctSlit	2/3deg.
RecSlit	0.3mm
Start	16
Stop	44
Step	0.02
Speed	0.3
Offset	0
  16.000  819.609
  16.100  664.389
  16.200  689.983
  16.300  581.233
  16.400  594.969
  16.500  615.143
  16.600  605.636
  16.700  645.732
  16.800  751.562
  16.900  711.019
  17.000  563.813
  17.100  543.049
  17.200  712.962
  17.300  628.535
  17.400  647.012
  17.500  840.755
  17.600  784.593
  17.700  942.988
  17.800  995.725
  17.900 1344.451
  18.000 1291.789
  18.100 1118.220
  18.200  822.445
  18.300  731.311
  18.400  856.072
  18.500  780.635
  18.600  791.005
  18.700  859.376
  18.800  693.133
  18.900  649.859
  19.000  738.213
  19.100  597.927
  19.200  797.208
  19.300  645.874
  19.400  870.976
  19.500  909.237
  19.600 1026.310
  19.700 1076.948
  19.800 1403.483
  19.900 2246.068
  20.000 2595.754
  20.100 2340.314
  20.200 1621.569
  20.300 1137.122
  20.400 1196.829
  20.500  846.303
  20.600  975.027
  20.700 1074.408
  20.800 1129.121
  20.900 1100.737
  21.000  895.832
  21.100  690.199
  21.200  712.522
  21.300  818.797
  21.400  804.182
  21.500  817.976
  21.600 1126.665
  21.700 1120.544
  21.800 1139.137
  21.900  896.595
  22.000  908.678
  22.100  828.878
  22.200  818.248
  22.300  706.402
  22.400  844.182
  22.500  954.865
  22.600  847.200
  22.700  885.345
  22.800  945.150
  22.900 1313.818
  23.000 1520.756
  23.100 1651.965
  23.200 1304.514
  23.300  972.717
  23.400  922.982
  23.500  954.856
  23.600  972.975
  23.700  947.822
  23.800 1162.790
  23.900 1540.586
  24.000 1461.897
  24.100 1469.271
  24.200 1318.511
  24.300 1223.582
  24.400  970.312
  24.500  844.673
  24.600  884.447
  24.700  726.105
  24.800  935.033
  24.900  909.108
  25.000 1017.347
  25.100 1073.186
  25.200 1178.573
  25.300 1052.438
  25.400 1133.350
  25.500 1458.813
  25.600 1719.339
  25.700 1550.733
  25.800 1319.419
  25.900  910.940
  26.000 1034.733
  26.100  972.057
  26.200  960.575
  26.300  928.238
  26.400 1033.074
  26.500 1239.964
  26.600 1371.400
  26.700 1863.835
  26.800 2330.248
  26.900 2218.466
  27.000 1982.441
  27.100 1479.122
  27.200 1018.248
  27.300  992.976
  27.400  880.314
  27.500 1005.074
  27.600  891.463
  27.700  886.802
  27.800 1201.151
  27.900 1581.862
  28.000 1643.173
  28.100 1516.604
  28.200 1158.047
  28.300  974.167
  28.400  858.449
  28.500  952.795
  28.600  924.770
  28.700  797.587
  28.800  825.608
  28.900  918.631
  29.000  916.646
  29.100  830.053
  29.200  738.278
  29.300  624.944
  29.400  866.944
  29.500  755.340
  29.600  744.954
  29.700  881.054
  29.800 1023.212
  29.900 1449.670
  30.000 1444.670
  30.100 1543.267
  30.200 1025.634
  30.300  943.573
  30.400  853.246
  30.500  662.241
  30.600  756.201
  30.700  642.521
  30.800  834.974
  30.900  681.926
  31.000  921.994
  31.100  870.452
  31.200 1046.110
  31.300 1346.773
  31.400 1523.723
  31.500 1526.678
  31.600 1344.270
  31.700 1294.911
  31.800 1313.179
  31.900 1209.314
  32.000 1114.474
  32.100 1057.540
  32.200 1146.088
  32.300 1195.218
  32.400  916.461
  32.500  737.234
  32.600  860.280
  32.700  580.532
  32.800  676.793
  32.900  828.337
  33.000  830.745
  33.100  566.046
  33.200  769.706
  33.300  750.057
  33.400  661.760
  33.500  545.690
  33.600  535.697
  33.700  707.901
  33.800  575.339
  33.900  725.716
  34.000  840.335
  34.100  732.885
  34.200  663.365
  34.300  798.597
  34.400  863.253
  34.500  907.308
  34.600 1135.469
  34.700 1599.263
  34.800 1727.891
  34.900 1803.860
  35.000 2028.107
  35.100 2597.031
  35.200 2761.506
  35.300 1988.252
  35.400 1482.987
  35.500 1030.060
  35.600  919.577
  35.700  921.463
  35.800  792.097
  35.900  803.368
  36.000  940.487
  36.100  779.821
  36.200  897.917
  36.300  693.664
  36.400  771.836
  36.500 1056.446
  36.600 1099.219
  36.700 1170.336
  36.800  985.328
  36.900  981.422
  37.000  978.236
  37.100  875.128
  37.200  894.139
  37.300  716.721
  37.400  724.584
  37.500  817.473
  37.600  869.137
  37.700 1136.295
  37.800 1202.315
  37.900 1103.602
  38.000 1182.442
  38.100 1040.949
  38.200  944.186
  38.300  897.399
  38.400  644.068
  38.500  784.042
  38.600  654.325
  38.700  641.501
  38.800  655.807
  38.900  673.198
  39.000  476.946
  39.100  577.611
  39.200  504.739
  39.300  520.041
  39.400  577.306
  39.500  669.973
  39.600  715.683
  39.700  719.861
  39.800  643.469
  39.900  618.039
  40.000  684.587
  40.100  642.203
  40.200  940.452
  40.300  980.080
  40.400  763.486
  40.500  679.866
  40.600  858.064
  40.700  640.660
  40.800  753.624
  40.900  778.149
  41.000  963.204
  41.100  852.549
  41.200  810.014
  41.300  729.795
  41.400  721.164
  41.500  675.771
  41.600  719.778
  41.700  604.998
  41.800  767.702
  41.900  824.194
  42.000  654.988
  42.100  815.088
  42.200  873.680
  42.300  857.244
  42.400  933.354
  42.500 1068.263
  42.600  957.299
  42.700 1039.326
  42.800  843.443
  42.900  718.881
  43.000  575.917
  43.100  559.231
  43.200  642.217
  43.300  435.279
  43.400  443.947
  43.500  644.662
  43.600  704.137
  43.700  592.885
  43.800  477.917
  43.900  645.275
  44.000  538.884

File: 2M1-std-21.TXT
Sample
Comments
Filename	C:\WINDMAX\DATA\USERS\GEO\GEO_ER~1\Pyrenees\BULKMA~1\2M1-std2.raw
Goniometer	Ultima IV In-plane
Attachment	Auto sample changer (10 samples)
ScanningMode	2Theta/Theta
ScanningType	Continuos Scanning
X-Ray	40kV/44mA
DivSlit	2/3deg.
DivH.L.Slit	10mm
SctSlit	2/3deg.
RecSlit	0.3mm
Start	16
Stop	44
Step	0.02
Speed	0.3
Offset	0
  16.000  613.244
  16.100  785.787
  16.200  642.696
  16.300  763.334
  16.400  568.841
  16.500  772.084
  16.600  585.174
  16.700  700.098
  16.800  720.218
  16.900  774.631
  17.000  546.301
  17.100  614.309
  17.200  570.882
  17.300  729.183
  17.400  633.325
  17.500  783.469
  17.600  728.984
  17.700  844.490
  17.800 1078.767
  17.900 1246.125
  18.000 1367.850
  18.100 1200.584
  18.200 1064.857
  18.300  677.072
  18.400  875.053
  18.500  858.518
  18.600  889.616
  18.700  687.344
  18.800  743.341
  18.900  694.718
  19.000  666.083
  19.100  574.728
  19.200  800.215
  19.300  805.708
  19.400  665.110
  19.500  919.675
  19.600  882.623
  19.700 1079.898
  19.800 1575.893
  19.900 2218.547
  20.000 2692.976
  20.100 2263.836
  20.200 1462.274
  20.300 1265.865
  20.400 1128.610
  20.500  877.730
  20.600 1074.424
  20.700 1235.246
  20.800 1252.247
  20.900 1034.998
  21.000  863.439
  21.100  825.321
  21.200  894.057
  21.300  874.394
  21.400  948.246
  21.500  833.226
  21.600 1079.779
  21.700 1155.762
  21.800 1184.166
  21.900  813.227
  22.000  973.639
  22.100  791.281
  22.200  691.924
  22.300  695.676
  22.400  794.835
  22.500  936.878
  22.600  898.557
  22.700  967.157
  22.800  929.815
  22.900 1210.862
  23.000 1551.545
  23.100 1556.319
  23.200 1437.425
  23.300 1049.993
  23.400  785.257
  23.500  785.974
  23.600  866.651
  23.700  930.757
  23.800 1240.485
  23.900 1413.746
  24.000 1538.477
  24.100 1519.242
  24.200 1357.988
  24.300 1136.454
  24.400  854.008
  24.500  795.134
  24.600  771.372
  24.700  685.104
  24.800  860.856
  24.900  963.779
  25.000  875.364
  25.100 1138.169
  25.200 1177.401
  25.300 1239.373
  25.400 1160.580
  25.500 1396.878
  25.600 1573.906
  25.700 1528.149
  25.800 1368.141
  25.900 1033.119
  26.000  802.555
  26.100 1001.495
  26.200  779.279
  26.300 1029.375
  26.400  901.937
  26.500 1258.661
  26.600 1414.816
  26.700 1896.946
  26.800 2247.446
  26.900 2392.768
  27.000 1971.683
  27.100 1297.902
  27.200 1087.067
  27.300  879.822
  27.400  952.279
  27.500  871.394
  27.600  834.998
  27.700 1098.206
  27.800 1061.822
  27.900 1549.761
  28.000 1773.471
  28.100 1629.554
  28.200 1214.895
  28.300 1086.692
  28.400 1062.398
  28.500  871.945
  28.600  736.867
  28.700  916.035
  28.800  870.235
  28.900  964.283
  29.000  733.138
  29.100  778.613
  29.200  648.647
  29.300  781.909
  29.400  724.817
  29.500  655.508
  29.600  814.659
  29.700  806.988
  29.800  986.843
  29.900 1412.616
  30.000 1602.629
  30.100 1406.197
  30.200 1158.702
  30.300  815.292
  30.400  712.311
  30.500  672.522
  30.600  784.588
  30.700  786.992
  30.800  742.654
  30.900  669.217
  31.000  913.742
  31.100  944.228
  31.200 1070.755
  31.300 1313.233
  31.400 1441.547
  31.500 1350.120
  31.600 1499.284
  31.700 1391.497
  31.800 1390.122
  31.900 1104.546
  32.000 1025.456
  32.100 1040.856
  32.200 1133.800
  32.300  984.702
  32.400  846.438
  32.500  693.955
  32.600  815.195
  32.700  583.107
  32.800  639.962
  32.900  730.420
  33.000  622.942
  33.100  622.005
  33.200  630.170
  33.300  730.050
  33.400  600.903
  33.500  585.638
  33.600  693.102
  33.700  586.008
  33.800  724.378
  33.900  771.568
  34.000  694.876
  34.100  854.095
  34.200  847.232
  34.300  689.582
  34.400  655.651
  34.500  816.938
  34.600 1075.636
  34.700 1493.471
  34.800 1678.873
  34.900 1751.504
  35.000 2127.470
  35.100 2708.135
  35.200 2833.602
  35.300 2123.625
  35.400 1430.542
  35.500  970.911
  35.600  772.268
  35.700  828.513
  35.800  737.734
  35.900  887.447
  36.000  878.968
  36.100  726.585
  36.200  875.904
  36.300  925.487
  36.400  822.273
  36.500 1063.970
  36.600  968.843
  36.700 1027.797
  36.800  938.973
  36.900  989.317
  37.000  854.110
  37.100  870.281
  37.200  664.055
  37.300  675.292
  37.400  858.576
  37.500  850.569
  37.600 1005.400
  37.700  919.575
  37.800 1110.161
  37.900 1128.993
  38.000 1144.368
  38.100 1039.668
  38.200  985.241
  38.300  805.987
  38.400  876.899
  38.500  613.986
  38.600  664.837
  38.700  647.821
  38.800  625.604
  38.900  625.656
  39.000  529.219
  39.100  709.188
  39.200  641.620
  39.300  502.022
  39.400  694.237
  39.500  496.153
  39.600  569.620
  39.700  644.530
  39.800  614.817
  39.900  579.998
  40.000  715.752
  40.100  663.570
  40.200  737.860
  40.300  957.076
  40.400  878.349
  40.500  731.567
  40.600  768.307
  40.700  870.325
  40.800  809.667
  40.900  844.657
  41.000  808.173
  41.100  968.417
  41.200  752.927
  41.300  833.312
  41.400  802.086
  41.500  691.663
  41.600  873.844
  41.700  645.534
  41.800  598.671
  41.900  805.446
  42.000  727.606
  42.100  856.161
  42.200  910.640
  42.300  999.942
  42.400  876.551
  42.500  919.015
  42.600  927.149
  42.700  983.649
  42.800  782.144
  42.900  755.632
  43.000  577.084
  43.100  456.022
  43.200  525.323
  43.300  555.771
  43.400  637.613
  43.500  495.830
  43.600  535.856
  43.700  471.819
  43.800  686.013
  43.900  645.337
  44.000  543.993

File: 2M1-std-22.TXT
Sample
Comments
Filename	C:\WINDMAX\DATA\USERS\GEO\GEO_ER~1\Pyrenees\BULKMA~1\2M1-std2.raw
Goniometer	Ultima IV In-plane
Attachment	Auto sample changer (10 samples)
ScanningMode	2Theta/Theta
ScanningType	Continuos Scanning
X-Ray	40kV/44mA
DivSlit	2/3deg.
DivH.L.Slit	10mm
SctSlit	2/3deg.
RecSlit	0.3mm
Start	16
Stop	44
Step	0.02
Speed	0.3
Offset	0
  16.000  735.504
  16.100  650.868
  16.200  751.897
  16.300  720.970
  16.400  602.249
  16.500  568.367
  16.600  517.151
  16.700  620.344
  16.800  771.317
  16.900  755.584
  17.000  530.274
  17.100  684.779
  17.200  517.582
  17.300  593.335
  17.400  807.241
  17.500  802.999
  17.600  743.615
  17.700  910.752
  17.800 1078.009
  17.900 1478.371
  18.000 1434.586
  18.100 1100.418
  18.200  840.335
  18.300  886.211
  18.400  820.531
  18.500  795.302
  18.600  783.695
  18.700  870.573
  18.800  777.882
  18.900  736.954
  19.000  653.840
  19.100  780.340
  19.200  646.183
  19.300  692.054
  19.400  805.699
  19.500  877.000
  19.600  966.160
  19.700 1277.215
  19.800 1478.235
  19.900 2139.612
  20.000 2629.911
  20.100 2378.266
  20.200 1574.101
  20.300 1247.449
  20.400 1092.333
  20.500 1049.987
  20.600  979.351
  20.700 1149.217
  20.800 1159.342
  20.900 1212.625
  21.000 1031.507
  21.100  736.962
  21.200  848.577
  21.300  751.734
  21.400  902.464
  21.500 1033.996
  21.600  962.658
  21.700 1192.512
  21.800 1145.030
  21.900 1066.934
  22.000  766.464
  22.100  864.178
  22.200  671.245
  22.300  862.692
  22.400  927.471
  22.500  888.425
  22.600  975.387
  22.700  846.156
  22.800 1152.434
  22.900 1189.293
  23.000 1644.582
  23.100 1640.600
  23.200 1444.219
  23.300  919.189
  23.400  778.122
  23.500  898.262
  23.600  858.132
  23.700  944.233
  23.800 1072.704
  23.900 1483.079
  24.000 1625.728
  24.100 1412.830
  24.200 1338.049
  24.300  975.339
  24.400  922.767
  24.500  891.408
  24.600  872.166
  24.700  904.143
  24.800  800.848
  24.900  828.512
  25.000  828.127
  25.100 1004.894
  25.200 1197.717
  25.300 1214.095
  25.400 1274.383
  25.500 1551.773
  25.600 1801.221
  25.700 1710.730
  25.800 1201.740
  25.900 1136.246
  26.000  832.211
  26.100  933.343
  26.200  751.490
  26.300  881.621
  26.400 1069.170
  26.500 1105.446
  26.600 1462.713
  26.700 1778.311
  26.800 2175.653
  26.900 2274.794
  27.000 1769.232
  27.100 1345.489
  27.200 1044.585
  27.300  885.304
  27.400  878.229
  27.500  827.028
  27.600 1004.675
  27.700 1029.776
  27.800 1239.425
  27.900 1358.442
  28.000 1657.891
  28.100 1611.155
  28.200 1186.544
  28.300 1193.579
  28.400  824.861
  28.500  825.799
  28.600  878.497
  28.700  863.790
  28.800  974.421
  28.900  958.970
  29.000  776.923
  29.100  716.053
  29.200  726.677
  29.300  788.082
  29.400  704.535
  29.500  863.793
  29.600  902.319
  29.700  866.371
  29.800 1173.598
  29.900 1209.291
  30.000 1492.677
  30.100 1384.152
  30.200 1118.513
  30.300  772.826
  30.400  908.409
  30.500  765.728
  30.600  673.990
  30.700  619.855
  30.800  625.740
  30.900  745.874
  31.000  830.627
  31.100  925.541
  31.200 1130.549
  31.300 1403.701
  31.400 1632.390
  31.500 1496.059
  31.600 1413.265
  31.700 1393.251
  31.800 1476.815
  31.900 1191.491
  32.000  929.565
  32.100 1211.321
  32.200 1248.347
  32.300 1117.732
  32.400  720.419
  32.500  637.002
  32.600  751.196
  32.700  787.399
  32.800  601.385
  32.900  708.936
  33.000  688.698
  33.100  560.922
  33.200  596.876
  33.300  593.243
  33.400  759.361
  33.500  712.551
  33.600  726.786
  33.700  557.380
  33.800  625.750
  33.900  600.340
  34.000  600.065
  34.100  651.365
  34.200  792.389
  34.300  807.530
  34.400  790.170
  34.500  980.216
  34.600 1203.495
  34.700 1520.355
  34.800 1706.710
  34.900 1816.864
  35.000 2071.647
  35.100 2699.389
  35.200 2907.787
  35.300 2111.892
  35.400 1412.448
  35.500 1048.160
  35.600  946.878
  35.700  704.785
  35.800  664.233
  35.900  952.003
  36.000  840.001
  36.100  934.609
  36.200  985.912
  36.300  709.348
  36.400  935.579
  36.500 1060.110
  36.600  988.990
  36.700  955.422
  36.800 1120.360
  36.900  838.163
  37.000  951.391
  37.100  870.830
  37.200  864.121
  37.300  695.600
  37.400  894.933
  37.500  823.946
  37.600  878.683
  37.700  982.535
  37.800 1241.620
  37.900 1165.646
  38.000 1151.572
  38.100 1045.355
  38.200  777.152
  38.300  810.478
  38.400  630.465
  38.500  726.838
  38.600  680.703
  38.700  484.485
  38.800  717.479
  38.900  592.206
  39.000  661.062
  39.100  695.951
  39.200  614.398
  39.300  555.815
  39.400  732.168
  39.500  480.106
  39.600  525.573
  39.700  633.455
  39.800  694.635
  39.900  704.839
  40.000  710.159
  40.100  832.589
  40.200  936.425
  40.300  756.985
  40.400  738.449
  40.500  853.445
  40.600  766.551
  40.700  802.040
  40.800  879.846
  40.900  905.965
  41.000  874.336
  41.100  866.853
  41.200  885.867
  41.300  691.168
  41.400  862.613
  41.500  761.222
  41.600  844.758
  41.700  624.856
  41.800  567.483
  41.900  727.845
  42.000  864.770
  42.100  784.809
  42.200  794.800
  42.300  842.193
  42.400 1025.332
  42.500 1137.927
  42.600  993.382
  42.700  918.512
  42.800  822.820
  42.900  544.771
  43.000  723.266
  43.100  587.649
  43.200  609.667
  43.300  519.384
  43.400  541.057
  43.500  640.659
  43.600  470.519
  43.700  534.914
  43.800  465.832
  43.900  617.164
  44.000  682.449

File: 2M1-std-23.TXT
Sample
Comments
Filename	C:\WINDMAX\DATA\USERS\GEO\GEO_ER~1\Pyrenees\BULKMA~1\2M1-std2.raw
Goniometer	Ultima IV In-plane
Attachment	Auto sample changer (10 samples)
ScanningMode	2Theta/Theta
ScanningType	Continuos Scanning
X-Ray	40kV/44mA
DivSlit	2/3deg.
DivH.L.Slit	10mm
SctSlit	2/3deg.
RecSlit	0.3mm
Start	16
Stop	44
Step	0.02
Speed	0.3
Offset	0
  16.000  636.310
  16.100  626.679
  16.200  587.828
  16.300  745.990
  16.400  748.417
  16.500  617.563
  16.600  528.224
  16.700  645.782
  16.800  673.243
  16.900  546.844
  17.000  630.296
  17.100  741.328
  17.200  702.941
  17.300  699.457
  17.400  636.145
  17.500  693.374
  17.600  769.066
  17.700 1016.757
  17.800 1187.081
  17.900 1459.315
  18.000 1261.081
  18.100 1160.234
  18.200  914.811
  18.300  654.804
  18.400  863.035
  18.500  614.157
  18.600  776.052
  18.700  660.050
  18.800  812.132
  18.900  701.179
  19.000  680.915
  19.100  644.464
  19.200  815.014
  19.300  645.119
  19.400  734.988
  19.500  782.595
  19.600  821.710
  19.700 1053.804
  19.800 1504.698
  19.900 2082.408
  20.000 2793.189
  20.100 2423.928
  20.200 1379.238
  20.300 1202.900
  20.400 1007.338
  20.500 1008.546
  20.600 1097.502
  20.700 1006.678
  20.800 1299.910
  20.900 1050.813
  21.000  891.394
  21.100  892.019
  21.200  864.862
  21.300  765.231
  21.400  723.071
  21.500 1017.128
  21.600 1039.714
  21.700 1089.949
  21.800  934.213
  21.900  824.989
  22.000  881.640
  22.100  931.034
  22.200  901.641
  22.300  952.713
  22.400  941.016
  22.500  900.684
  22.600  913.759
  22.700  904.994
  22.800  924.315
  22.900 1226.187
  23.000 1599.904
  23.100 1717.678
  23.200 1234.259
  23.300  940.955
  23.400  798.694
  23.500  778.852
  23.600 1017.366
  23.700  898.232
  23.800 1252.864
  23.900 1408.835
  24.000 1476.341
  24.100 1384.377
  24.200 1199.357
  24.300 1178.090
  24.400  918.456
  24.500  777.521
  24.600  775.039
  24.700  761.123
  24.800  864.712
  24.900  796.118
  25.000 1034.518
  25.100  887.498
  25.200 1029.201
  25.300 1172.161
  25.400 1196.150
  25.500 1404.473
  25.600 1604.436
  25.700 1599.315
  25.800 1172.805
  25.900 1099.760
  26.000  799.924
  26.100  832.986
  26.200  948.979
  26.300  894.241
  26.400 1065.673
  26.500 1223.866
  26.600 1389.012
  26.700 1860.442
  26.800 2280.130
  26.900 2221.902
  27.000 1950.872
  27.100 1277.774
  27.200  987.179
  27.300 1082.008
  27.400  975.803
  27.500  873.396
  27.600 1073.977
  27.700 1038.457
  27.800 1163.946
  27.900 1546.794
  28.000 1621.731
  28.100 1503.528
  28.200 1252.819
  28.300 1019.026
  28.400  891.308
  28.500  798.284
  28.600  995.853
  28.700 1058.166
  28.800 1005.164
  28.900  889.192
  29.000  960.513
  29.100  954.585
  29.200  869.414
  29.300  769.515
  29.400  811.154
  29.500  782.084
  29.600  702.722
  29.700  843.492
  29.800 1012.335
  29.900 1442.082
  30.000 1611.067
  30.100 1430.908
  30.200 1270.227
  30.300  773.167
  30.400  868.945
  30.500  730.669
  30.600  678.934
  30.700  615.464
  30.800  762.252
  30.900  747.184
  31.000  932.697
  31.100 1012.945
  31.200 1144.473
  31.300 1358.034
  31.400 1581.808
  31.500 1421.026
  31.600 1360.234
  31.700 1478.250
  31.800 1224.665
  31.900 1193.277
  32.000 1040.194
  32.100 1011.129
  32.200 1095.956
  32.300 1054.869
  32.400  915.196
  32.500  726.575
  32.600  670.638
  32.700  793.579
  32.800  569.824
  32.900  800.846
  33.000  748.859
  33.100  654.448
  33.200  573.314
  33.300  749.648
  33.400  538.362
  33.500  723.837
  33.600  615.214
  33.700  575.924
  33.800  599.748
  33.900  721.214
  34.000  612.921
  34.100  784.785
  34.200  672.278
  34.300  760.534
  34.400  710.378
  34.500  946.395
  34.600 1141.684
  34.700 1558.867
  34.800 1705.014
  34.900 1884.820
  35.000 2125.129
  35.100 2542.974
  35.200 2795.709
  35.300 2028.048
  35.400 1361.587
  35.500  987.133
  35.600  926.161
  35.700  910.217
  35.800  855.711
  35.900  809.443
  36.000  773.256
  36.100  889.042
  36.200  968.846
  36.300  731.266
  36.400  811.040
  36.500  959.446
  36.600 1173.171
  36.700 1084.393
  36.800 1088.848
  36.900 1005.588
  37.000  996.741
  37.100  685.148
  37.200  844.083
  37.300  645.793
  37.400  709.945
  37.500  865.581
  37.600  897.332
  37.700 1100.199
  37.800 1119.516
  37.900 1136.167
  38.000 1066.974
  38.100 1121.282
  38.200  925.612
  38.300  718.866
  38.400  650.615
  38.500  602.148
  38.600  589.843
  38.700  701.869
  38.800  658.225
  38.900  576.777
  39.000  588.091
  39.100  681.967
  39.200  620.926
  39.300  738.186
  39.400  676.421
  39.500  622.983
  39.600  594.297
  39.700  507.127
  39.800  548.798
  39.900  541.691
  40.000  774.612
  40.100  757.217
  40.200  928.631
  40.300  856.397
  40.400  840.102
  40.500  922.327
  40.600  696.624
  40.700  771.446
  40.800  877.823
  40.900  793.589
  41.000  863.001
  41.100  892.519
  41.200  742.311
  41.300  871.439
  41.400  698.216
  41.500  799.644
  41.600  618.987
  41.700  584.626
  41.800  761.646
  41.900  823.082
  42.000  708.701
  42.100  783.416
  42.200  865.930
  42.300 1076.269
  42.400 1062.123
  42.500 1086.229
  42.600 1013.696
  42.700  941.964
  42.800  756.944
  42.900  535.605
  43.000  739.691
  43.100  668.270
  43.200  492.696
  43.300  566.746
  43.400  501.453
  43.500  532.670
  43.600  529.083
  43.700  661.361
  43.800  609.951
  43.900  579.950
  44.000  612.270