Folder: Linux_class/xrd_output/random_files (part 4)

File: 2M1-std-12.TXT
Sample
Comments
Filename	C:\WINDMAX\DATA\USERS\GEO\GEO_ER~1\Pyrenees\BULKMA~1\2M1-std2.raw
Goniometer	Ultima IV In-plane
Attachment	Auto sample changer (10 samples)
ScanningMode	2Theta/Theta
ScanningType	Continuos Scanning
X-Ray	40kV/44mA
DivSlit	2/3deg.
DivH.L.Slit	10mm
SctSlit	2/3deg.
RecSlit	0.3mm
Start	16
Stop	44
Step	0.02
Speed	0.3
Offset	0
  16.000  765.542
  16.100  821.643
  16.200  682.776
  16.300  732.032
  16.400  520.243
  16.500  667.001
  16.600  582.977
  16.700  683.295
  16.800  705.958
  16.900  576.368
  17.000  549.473
  17.100  656.817
  17.200  727.130
  17.300  638.309
  17.400  589.765
  17.500  705.399
  17.600  894.142
  17.700 1032.566
  17.800 1203.472
  17.900 1399.860
  18.000 1427.691
  18.100 1100.996
  18.200 1004.340
  18.300  849.725
  18.400  832.279
  18.500  665.791
  18.600  638.239
  18.700  740.404
  18.800  757.765
  18.900  664.620
  19.000  749.384
  19.100  625.268
  19.200  780.802
  19.300  794.370
  19.400  761.981
  19.500  722.386
  19.600  872.297
  19.700 1169.408
  19.800 1426.232
  19.900 2242.746
  20.000 2773.888
  20.100 2251.624
  20.200 1530.385
  20.300 1154.053
  20.400 1018.567
  20.500  896.111
  20.600  891.170
  20.700 1065.564
  20.800 1348.450
  20.900 1014.617
  21.000  970.558
  21.100  875.809
  21.200  915.867
  21.300  724.112
  21.400  822.572
  21.500  965.412
  21.600 1104.955
  21.700 1183.039
  21.800 1017.458
  21.900  809.370
  22.000  866.802
  22.100  821.868
  22.200  740.240
  22.300  711.294
  22.400  752.811
  22.500  941.312
  22.600  817.328
  22.700  912.568
  22.800 1107.257
  22.900 1163.797
  23.000 1668.095
  23.100 1557.680
  23.200 1241.741
  23.300  925.824
  23.400  827.068
  23.500  963.898
  23.600 1019.907
  23.700  889.851
  23.800 1141.174
  23.900 1344.542
  24.000 1689.998
  24.100 1496.276
  24.200 1198.605
  24.300 1030.965
  24.400  943.528
  24.500  715.500
  24.600  832.466
  24.700  728.537
  24.800  770.453
  24.900  928.681
  25.000  876.877
  25.100 1013.883
  25.200  982.809
  25.300 1066.355
  25.400 1189.485
  25.500 1416.658
  25.600 1672.538
  25.700 1706.324
  25.800 1347.093
  25.900  968.427
  26.000  932.724
  26.100  899.888
  26.200  915.024
  26.300  814.227
  26.400  930.541
  26.500 1210.930
  26.600 1366.158
  26.700 1755.707
  26.800 2229.709
  26.900 2276.864
  27.000 1955.560
  27.100 1284.871
  27.200  974.254
  27.300 1081.058
  27.400 1001.170
  27.500  906.251
  27.600 1046.872
  27.700 1129.322
  27.800 1214.220
  27.900 1556.979
  28.000 1673.190
  28.100 1515.944
  28.200 1190.459
  28.300  970.820
  28.400  897.364
  28.500  881.385
  28.600  958.603
  28.700  822.014
  28.800  981.188
  28.900  948.861
  29.000  818.820
  29.100  774.963
  29.200  885.315
  29.300  679.400
  29.400  667.656
  29.500  762.531
  29.600  736.246
  29.700  987.816
  29.800 1094.575
  29.900 1261.375
  30.000 1575.912
  30.100 1536.667
  30.200 1051.636
  30.300  907.843
  30.400  735.184
  30.500  823.140
  30.600  643.089
  30.700  785.894
  30.800  600.573
  30.900  822.699
  31.000  924.544
  31.100  887.179
  31.200 1215.001
  31.300 1348.721
  31.400 1629.692
  31.500 1510.910
  31.600 1348.457
  31.700 1513.742
  31.800 1394.090
  31.900 1052.731
  32.000  980.657
  32.100 1157.682
  32.200 1282.874
  32.300 1119.656
  32.400  790.242
  32.500  791.795
  32.600  725.532
  32.700  642.450
  32.800  725.636
  32.900  570.866
  33.000  785.408
  33.100  630.936
  33.200  717.875
  33.300  601.059
  33.400  748.561
  33.500  738.879
  33.600  666.527
  33.700  754.761
  33.800  589.683
  33.900  619.821
  34.000  809.333
  34.100  690.586
  34.200  688.503
  34.300  861.850
  34.400  747.436
  34.500  801.060
  34.600 1099.468
  34.700 1632.153
  34.800 1675.420
  34.900 1794.135
  35.000 2097.099
  35.100 2537.320
  35.200 2775.005
  35.300 2131.289
  35.400 1461.689
  35.500  986.530
  35.600 1007.988
  35.700  827.739
  35.800  673.636
  35.900  875.921
  36.000  753.012
  36.100  773.516
  36.200  965.924
  36.300  862.734
  36.400  920.216
  36.500 1068.037
  36.600 1150.970
  36.700 1081.189
  36.800 1065.156
  36.900 1087.408
  37.000  841.226
  37.100  840.987
  37.200  752.653
  37.300  825.873
  37.400  798.142
  37.500  742.970
  37.600  841.883
  37.700  923.392
  37.800 1090.466
  37.900 1078.315
  38.000 1255.625
  38.100 1056.757
  38.200  798.179
  38.300  859.105
  38.400  760.789
  38.500  632.459
  38.600  550.995
  38.700  539.438
  38.800  697.897
  38.900  706.488
  39.000  615.623
  39.100  663.009
  39.200  703.793
  39.300  681.775
  39.400  630.417
  39.500  615.514
  39.600  547.723
  39.700  709.733
  39.800  590.909
  39.900  522.958
  40.000  588.866
  40.100  657.536
  40.200  754.424
  40.300  944.754
  40.400  904.619
  40.500  915.104
  40.600  828.191
  40.700  694.981
  40.800  890.304
  40.900  873.597
  41.000  985.989
  41.100  913.360
  41.200  841.478
  41.300  875.937
  41.400  774.708
  41.500  686.577
  41.600  861.858
  41.700  713.765
  41.800  778.202
  41.900  834.719
  42.000  745.068
  42.100  892.798
  42.200  853.267
  42.300  880.790
  42.400  983.637
  42.500 1125.087
  42.600 1059.351
  42.700 1102.690
  42.800  796.629
  42.900  719.199
  43.000  720.897
  43.100  531.941
  43.200  499.005
  43.300  585.194
  43.400  648.401
  43.500  555.269
  43.600  506.771
  43.700  489.468
  43.800  668.155
  43.900  485.142
  44.000  618.960

File: 2M1-std-13.TXT
Sample
Comments
Filename	C:\WINDMAX\DATA\USERS\GEO\GEO_ER~1\Pyrenees\BULKMA~1\2M1-std2.raw
Goniometer	Ultima IV In-plane
Attachment	Auto sample changer (10 samples)
ScanningMode	2Theta/Theta
ScanningType	Continuos Scanning
X-Ray	40kV/44mA
DivSlit	2/3deg.
DivH.L.Slit	10mm
SctSlit	2/3deg.
RecSlit	0.3mm
Start	16
Stop	44
Step	0.02
Speed	0.3
Offset	0
  16.000  727.006
  16.100  651.084
  16.200  787.138
  16.300  592.593
  16.400  509.236
  16.500  679.014
  16.600  739.757
  16.700  521.187
  16.800  726.355
  16.900  640.353
  17.000  714.432
  17.100  655.182
  17.200  613.800
  17.300  742.885
  17.400  598.233
  17.500  653.915
  17.600  894.794
  17.700  803.205
  17.800 1156.031
  17.900 1373.952
  18.000 1212.808
  18.100 1178.552
  18.200  870.977
  18.300  723.274
  18.400  704.785
  18.500  811.194
  18.600  646.718
  18.700  764.541
  18.800  750.862
  18.900  706.443
  19.000  649.517
  19.100  642.603
  19.200  701.243
  19.300  638.823
  19.400  706.691
  19.500  774.124
  19.600  876.235
  19.700 1271.802
  19.800 1574.529
  19.900 2220.674
  20.000 2594.936
  20.100 2244.341
  20.200 1484.621
  20.300 1167.432
  20.400 1003.099
  20.500  836.622
  20.600  930.694
  20.700 1213.242
  20.800 1218.136
  20.900 1219.873
  21.000  971.751
  21.100  762.202
  21.200  705.331
  21.300  772.141
  21.400  946.329
  21.500  801.398
  21.600 1008.403
  21.700 1025.400
  21.800  950.547
  21.900  834.309
  22.000  881.928
  22.100  815.239
  22.200  912.712
  22.300  946.499
  22.400  766.358
  22.500  914.550
  22.600  900.252
  22.700  866.642
  22.800 1006.234
  22.900 1207.950
  23.000 1440.532
  23.100 1709.598
  23.200 1376.287
  23.300 1124.325
  23.400  776.225
  23.500  793.098
  23.600  995.289
  23.700  884.337
  23.800 1169.457
  23.900 1379.359
  24.000 1511.552
  24.100 1340.607
  24.200 1299.259
  24.300  978.830
  24.400 1001.182
  24.500  804.965
  24.600  700.780
  24.700  699.452
  24.800  825.100
  24.900  990.522
  25.000  851.590
  25.100  933.802
  25.200 1018.789
  25.300 1155.104
  25.400 1226.274
  25.500 1311.936
  25.600 1601.843
  25.700 1666.754
  25.800 1313.134
  25.900  891.701
  26.000  954.851
  26.100  809.347
  26.200  834.491
  26.300  809.692
  26.400 1071.074
  26.500 1049.171
  26.600 1492.956
  26.700 1806.399
  26.800 2377.320
  26.900 2232.964
  27.000 1850.226
  27.100 1491.685
  27.200 1016.281
  27.300  958.938
  27.400  856.850
  27.500  966.644
  27.600 1009.401
  27.700 1102.086
  27.800 1055.519
  27.900 1380.564
  28.000 1647.290
  28.100 1410.630
  28.200 1170.944
  28.300 1117.396
  28.400  962.485
  28.500  969.444
  28.600  750.630
  28.700  931.753
  28.800  921.487
  28.900  759.960
  29.000  876.456
  29.100  743.829
  29.200  742.437
  29.300  666.025
  29.400  751.229
  29.500  657.629
  29.600  732.057
  29.700  873.344
  29.800 1189.134
  29.900 1344.510
  30.000 1592.584
  30.100 1465.141
  30.200 1108.806
  30.300  998.385
  30.400  848.689
  30.500  724.859
  30.600  663.658
  30.700  619.681
  30.800  824.136
  30.900  715.051
  31.000  886.494
  31.100 1064.411
  31.200 1279.027
  31.300 1407.578
  31.400 1530.553
  31.500 1530.910
  31.600 1387.799
  31.700 1426.414
  31.800 1402.042
  31.900 1273.750
  32.000 1021.868
  32.100 1060.565
  32.200 1088.022
  32.300  978.895
  32.400  733.098
  32.500  725.370
  32.600  687.603
  32.700  763.643
  32.800  607.842
  32.900  689.816
  33.000  768.314
  33.100  619.406
  33.200  555.848
  33.300  645.332
  33.400  664.667
  33.500  719.877
  33.600  746.515
  33.700  645.027
  33.800  552.927
  33.900  653.479
  34.000  743.314
  34.100  683.893
  34.200  878.104
  34.300  687.003
  34.400  853.653
  34.500  972.099
  34.600 1276.767
  34.700 1403.663
  34.800 1799.902
  34.900 1778.856
  35.000 2130.031
  35.100 2744.465
  35.200 2897.095
  35.300 2127.435
  35.400 1314.144
  35.500 1005.565
  35.600  981.677
  35.700  733.884
  35.800  667.475
  35.900  760.740
  36.000  755.847
  36.100  947.829
  36.200  770.251
  36.300  859.276
  36.400  945.107
  36.500 1059.025
  36.600 1087.393
  36.700 1149.985
  36.800  906.636
  36.900  981.827
  37.000  984.183
  37.100  768.857
  37.200  688.823
  37.300  720.037
  37.400  827.535
  37.500  783.450
  37.600  849.518
  37.700 1073.384
  37.800  992.126
  37.900 1128.078
  38.000 1197.702
  38.100 1029.945
  38.200  995.649
  38.300  864.773
  38.400  745.241
  38.500  572.916
  38.600  740.627
  38.700  679.799
  38.800  573.291
  38.900  557.526
  39.000  639.280
  39.100  471.604
  39.200  514.422
  39.300  543.260
  39.400  727.493
  39.500  586.189
  39.600  648.654
  39.700  564.462
  39.800  682.148
  39.900  647.195
  40.000  562.703
  40.100  798.947
  40.200  902.782
  40.300  761.420
  40.400  801.902
  40.500  805.285
  40.600  930.593
  40.700  846.423
  40.800  836.086
  40.900  829.394
  41.000  796.181
  41.100  770.419
  41.200  854.750
  41.300  636.750
  41.400  863.750
  41.500  740.952
  41.600  736.487
  41.700  654.229
  41.800  774.153
  41.900  835.242
  42.000  671.273
  42.100  826.729
  42.200 1036.517
  42.300 1084.707
  42.400 1035.807
  42.500  937.265
  42.600  947.599
  42.700  983.424
  42.800  799.542
  42.900  742.709
  43.000  746.450
  43.100  704.606
  43.200  683.490
  43.300  447.026
  43.400  610.923
  43.500  511.214
  43.600  663.164
  43.700  430.537
  43.800  585.168
  43.900  518.229
  44.000  728.727

File: 2M1-std-14.TXT
Sample
Comments
Filename	C:\WINDMAX\DATA\USERS\GEO\GEO_ER~1\Pyrenees\BULKMA~1\2M1-std2.raw
Goniometer	Ultima IV In-plane
Attachment	Auto sample changer (10 samples)
ScanningMode	2Theta/Theta
ScanningType	Continuos Scanning
X-Ray	40kV/44mA
DivSlit	2/3deg.
DivH.L.Slit	10mm
SctSlit	2/3deg.
RecSlit	0.3mm
Start	16
Stop	44
Step	0.02
Speed	0.3
Offset	0
  16.000  758.504
  16.100  807.463
  16.200  783.325
  16.300  775.764
  16.400  691.967
  16.500  670.173
  16.600  731.753
  16.700  598.626
  16.800  676.378
  16.900  592.216
  17.000  540.521
  17.100  730.138
  17.200  693.495
  17.300  598.412
  17.400  598.173
  17.500  690.316
  17.600  882.409
  17.700  906.503
  17.800 1178.775
  17.900 1403.680
  18.000 1408.646
  18.100 1125.805
  18.200  900.270
  18.300  786.006
  18.400  816.524
  18.500  676.581
  18.600  831.602
  18.700  768.132
  18.800  639.863
  18.900  815.184
  19.000  686.391
  19.100  610.137
  19.200  843.488
  19.300  857.939
  19.400  679.905
  19.500  919.152
  19.600  806.821
  19.700 1070.986
  19.800 1498.930
  19.900 2091.554
  20.000 2692.715
  20.100 2295.152
  20.200 1572.360
  20.300 1089.843
  20.400 1187.133
  20.500 1048.524
  20.600  985.723
  20.700 1152.141
  20.800 1153.357
  20.900 1147.905
  21.000  844.762
  21.100  830.961
  21.200  912.672
  21.300  762.595
  21.400  888.615
  21.500  809.758
  21.600  998.744
  21.700 1131.277
  21.800 1109.850
  21.900 1047.445
  22.000  804.912
  22.100  902.561
  22.200  883.636
  22.300  856.543
  22.400  731.291
  22.500  816.907
  22.600  814.303
  22.700  819.772
  22.800 1125.056
  22.900 1124.817
  23.000 1621.290
  23.100 1709.294
  23.200 1230.143
  23.300 1037.491
  23.400  913.117
  23.500  927.546
  23.600 1020.219
  23.700 1041.297
  23.800 1077.945
  23.900 1537.018
  24.000 1557.120
  24.100 1444.645
  24.200 1428.000
  24.300 1020.067
  24.400  833.305
  24.500  742.285
  24.600  703.936
  24.700  903.431
  24.800  834.828
  24.900  771.538
  25.000 1000.139
  25.100 1027.903
  25.200  969.606
  25.300 1186.461
  25.400 1287.418
  25.500 1546.572
  25.600 1764.749
  25.700 1597.270
  25.800 1371.659
  25.900 1057.515
  26.000  943.077
  26.100  934.717
  26.200  796.436
  26.300  788.449
  26.400 1106.762
  26.500 1068.008
  26.600 1450.763
  26.700 1915.817
  26.800 2148.379
  26.900 2306.455
  27.000 1835.709
  27.100 1368.424
  27.200 1099.805
  27.300 1070.893
  27.400  994.022
  27.500  921.711
  27.600  977.699
  27.700  970.689
  27.800 1247.004
  27.900 1350.497
  28.000 1643.486
  28.100 1448.741
  28.200 1299.235
  28.300 1011.517
  28.400  962.054
  28.500  945.894
  28.600  784.779
  28.700 1059.350
  28.800  931.617
  28.900  788.906
  29.000  961.641
  29.100  806.849
  29.200  785.044
  29.300  666.469
  29.400  814.332
  29.500  758.229
  29.600  883.277
  29.700  791.519
  29.800 1010.134
  29.900 1279.711
  30.000 1541.446
  30.100 1398.601
  30.200 1250.149
  30.300  837.287
  30.400  867.016
  30.500  648.984
  30.600  656.227
  30.700  801.944
  30.800  681.432
  30.900  836.769
  31.000  802.017
  31.100  845.981
  31.200 1106.376
  31.300 1313.803
  31.400 1593.347
  31.500 1449.233
  31.600 1473.603
  31.700 1487.131
  31.800 1271.297
  31.900 1043.998
  32.000  988.787
  32.100 1208.777
  32.200 1089.820
  32.300 1124.972
  32.400  822.784
  32.500  859.735
  32.600  771.889
  32.700  790.108
  32.800  816.709
  32.900  779.537
  33.000  619.232
  33.100  756.860
  33.200  777.044
  33.300  523.497
  33.400  741.734
  33.500  722.684
  33.600  529.971
  33.700  688.314
  33.800  661.733
  33.900  698.039
  34.000  718.106
  34.100  801.839
  34.200  781.667
  34.300  807.814
  34.400  675.379
  34.500  875.950
  34.600 1227.280
  34.700 1466.648
  34.800 1606.543
  34.900 1896.976
  35.000 1944.887
  35.100 2679.962
  35.200 2924.977
  35.300 2000.205
  35.400 1523.154
  35.500 1022.267
  35.600  764.240
  35.700  741.120
  35.800  765.979
  35.900  859.998
  36.000  727.060
  36.100  880.567
  36.200  855.277
  36.300  794.358
  36.400  950.370
  36.500 1076.912
  36.600 1023.980
  36.700 1193.887
  36.800  916.020
  36.900 1005.585
  37.000  974.242
  37.100  683.676
  37.200  848.927
  37.300  775.951
  37.400  725.491
  37.500  842.579
  37.600  853.160
  37.700  993.408
  37.800 1238.404
  37.900 1087.581
  38.000 1258.032
  38.100 1005.097
  38.200  922.052
  38.300  805.990
  38.400  828.359
  38.500  801.685
  38.600  631.402
  38.700  485.623
  38.800  617.294
  38.900  669.721
  39.000  489.514
  39.100  679.163
  39.200  521.916
  39.300  594.262
  39.400  498.199
  39.500  573.002
  39.600  554.055
  39.700  707.314
  39.800  662.231
  39.900  563.869
  40.000  721.503
  40.100  811.624
  40.200  780.078
  40.300  913.022
  40.400  832.633
  40.500  708.574
  40.600  854.072
  40.700  639.568
  40.800  929.309
  40.900  954.721
  41.000  807.376
  41.100  897.723
  41.200  717.984
  41.300  883.315
  41.400  741.714
  41.500  658.755
  41.600  692.675
  41.700  792.402
  41.800  752.363
  41.900  661.545
  42.000  856.006
  42.100  921.162
  42.200 1009.163
  42.300  909.052
  42.400  901.981
  42.500 1167.737
  42.600  988.407
  42.700  897.467
  42.800  754.152
  42.900  647.964
  43.000  538.457
  43.100  547.516
  43.200  529.702
  43.300  584.226
  43.400  426.983
  43.500  439.891
  43.600  663.686
  43.700  548.972
  43.800  539.105
  43.900  709.677
  44.000  554.904

File: 2M1-std-15.TXT
Sample
Comments
Filename	C:\WINDMAX\DATA\USERS\GEO\GEO_ER~1\Pyrenees\BULKMA~1\2M1-std2.raw
Goniometer	Ultima IV In-plane
Attachment	Auto sample changer (10 samples)
ScanningMode	2Theta/Theta
ScanningType	Continuos Scanning
X-Ray	40kV/44mA
DivSlit	2/3deg.
DivH.L.Slit	10mm
SctSlit	2/3deg.
RecSlit	0.3mm
Start	16
Stop	44
Step	0.02
Speed	0.3
Offset	0
  16.000  748.333
  16.100  796.164
  16.200  756.503
  16.300  639.358
  16.400  595.102
  16.500  699.105
  16.600  647.127
  16.700  698.766
  16.800  771.528
  16.900  534.157
  17.000  565.464
  17.100  730.894
  17.200  567.829
  17.300  732.628
  17.400  799.333
  17.500  585.954
  17.600  761.450
  17.700  854.253
  17.800 1171.089
  17.900 1434.130
  18.000 1419.865
  18.100 1175.197
  18.200  950.668
  18.300  635.772
  18.400  850.947
  18.500  854.594
  18.600  782.424
  18.700  740.938
  18.800  886.842
  18.900  772.454
  19.000  617.295
  19.100  620.437
  19.200  628.368
  19.300  832.898
  19.400  703.756
  19.500  885.635
  19.600  914.332
  19.700 1029.836
  19.800 1381.028
  19.900 2246.140
  20.000 2792.140
  20.100 2446.765
  20.200 1426.619
  20.300 1049.624
  20.400 1141.919
  20.500 1016.112
  20.600  896.634
  20.700 1059.108
  20.800 1214.251
  20.900  995.290
  21.000  800.338
  21.100  671.839
  21.200  657.369
  21.300  764.737
  21.400  699.747
  21.500  846.462
  21.600 1108.374
  21.700 1007.957
  21.800 1063.221
  21.900  828.406
  22.000  888.316
  22.100  691.227
  22.200  820.022
  22.300  698.930
  22.400  944.063
  22.500 1032.394
  22.600  926.950
  22.700  799.202
  22.800 1117.504
  22.900 1128.771
  23.000 1518.165
  23.100 1667.495
  23.200 1364.601
  23.300 1107.525
  23.400  910.438
  23.500  745.588
  23.600  837.788
  23.700 1133.089
  23.800 1285.764
  23.900 1340.620
  24.000 1690.420
  24.100 1407.726
  24.200 1424.651
  24.300 1146.694
  24.400 1017.393
  24.500  897.654
  24.600  754.514
  24.700  897.539
  24.800  811.101
  24.900  800.547
  25.000  833.960
  25.100 1077.797
  25.200 1078.502
  25.300 1033.070
  25.400 1077.546
  25.500 1516.256
  25.600 1705.747
  25.700 1657.965
  25.800 1316.901
  25.900 1028.930
  26.000  948.071
  26.100  853.986
  26.200  811.043
  26.300 1031.384
  26.400  924.850
  26.500 1198.611
  26.600 1353.545
  26.700 1847.898
  26.800 2336.975
  26.900 2329.036
  27.000 1786.444
  27.100 1354.226
  27.200 1213.962
  27.300  948.598
  27.400  891.434
  27.500  812.968
  27.600  966.234
  27.700 1122.983
  27.800 1163.653
  27.900 1407.138
  28.000 1815.861
  28.100 1650.902
  28.200 1354.312
  28.300  971.114
  28.400  860.845
  28.500  998.113
  28.600  804.519
  28.700  834.616
  28.800  981.739
  28.900  794.548
  29.000  833.431
  29.100  962.105
  29.200  812.557
  29.300  734.704
  29.400  758.583
  29.500  746.884
  29.600  843.653
  29.700  960.395
  29.800 1148.718
  29.900 1269.147
  30.000 1648.174
  30.100 1354.034
  30.200 1054.833
  30.300  783.304
  30.400  756.824
  30.500  776.662
  30.600  712.125
  30.700  778.241
  30.800  780.010
  30.900  744.272
  31.000  842.704
  31.100 1071.384
  31.200 1283.027
  31.300 1544.158
  31.400 1524.533
  31.500 1556.375
  31.600 1597.615
  31.700 1405.847
  31.800 1352.080
  31.900 1125.113
  32.000  976.921
  32.100 1112.162
  32.200 1250.128
  32.300 1009.589
  32.400  776.677
  32.500  832.408
  32.600  765.199
  32.700  734.289
  32.800  673.048
  32.900  596.177
  33.000  839.040
  33.100  760.164
  33.200  705.750
  33.300  559.860
  33.400  545.122
  33.500  572.871
  33.600  512.872
  33.700  563.672
  33.800  783.267
  33.900  576.175
  34.000  772.389
  34.100  780.533
  34.200  706.549
  34.300  775.710
  34.400  793.411
  34.500  989.735
  34.600 1085.008
  34.700 1432.978
  34.800 1679.071
  34.900 1729.446
  35.000 2006.447
  35.100 2736.702
  35.200 2793.298
  35.300 2088.582
  35.400 1448.491
  35.500 1123.992
  35.600  881.797
  35.700  884.688
  35.800  776.242
  35.900  909.654
  36.000  852.845
  36.100  808.406
  36.200  888.079
  36.300  738.739
  36.400  866.567
  36.500 1070.884
  36.600 1109.652
  36.700  936.549
  36.800 1125.525
  36.900 1017.337
  37.000 1039.303
  37.100  874.170
  37.200  893.053
  37.300  711.756
  37.400  904.661
  37.500  842.210
  37.600  816.199
  37.700 1015.726
  37.800 1189.472
  37.900 1312.705
  38.000 1167.411
  38.100 1042.569
  38.200  945.862
  38.300  813.087
  38.400  637.961
  38.500  824.992
  38.600  769.328
  38.700  696.433
  38.800  574.720
  38.900  684.277
  39.000  496.753
  39.100  599.441
  39.200  718.312
  39.300  678.246
  39.400  684.212
  39.500  562.424
  39.600  612.751
  39.700  536.410
  39.800  546.832
  39.900  741.565
  40.000  558.293
  40.100  823.161
  40.200  914.029
  40.300  991.933
  40.400  949.364
  40.500  804.114
  40.600  845.507
  40.700  744.116
  40.800  855.707
  40.900  772.149
  41.000  967.887
  41.100  863.087
  41.200  776.607
  41.300  785.031
  41.400  886.187
  41.500  758.391
  41.600  819.041
  41.700  669.717
  41.800  784.192
  41.900  794.014
  42.000  755.317
  42.100  961.514
  42.200  830.876
  42.300  944.746
  42.400 1056.446
  42.500 1035.134
  42.600 1109.398
  42.700  936.761
  42.800  677.467
  42.900  699.168
  43.000  722.650
  43.100  705.648
  43.200  667.350
  43.300  586.709
  43.400  457.548
  43.500  534.124
  43.600  459.894
  43.700  656.859
  43.800  579.219
  43.900  532.429
  44.000  691.127