Folder: Linux_class/xrd_output/random_files (part 3)

File: 2M1-std-8.TXT
Sample
Comments
Filename	C:\WINDMAX\DATA\USERS\GEO\GEO_ER~1\Pyrenees\BULKMA~1\2M1-std2.raw
Goniometer	Ultima IV In-plane
Attachment	Auto sample changer (10 samples)
ScanningMode	2Theta/Theta
ScanningType	Continuos Scanning
X-Ray	40kV/44mA
DivSlit	2/3deg.
DivH.L.Slit	10mm
SctSlit	2/3deg.
RecSlit	0.3mm
Start	16
Stop	44
Step	0.02
Speed	0.3
Offset	0
  16.000  660.515
  16.100  703.298
  16.200  685.213
  16.300  718.418
  16.400  679.963
  16.500  764.328
  16.600  759.929
  16.700  583.813
  16.800  719.383
  16.900  681.011
  17.000  531.060
  17.100  730.038
  17.200  533.015
  17.300  665.552
  17.400  749.597
  17.500  702.050
  17.600  750.152
  17.700  932.088
  17.800 1051.954
  17.900 1467.274
  18.000 1283.641
  18.100 1226.138
  18.200  972.161
  18.300  754.944
  18.400  801.602
  18.500  694.129
  18.600  785.797
  18.700  785.134
  18.800  635.827
  18.900  633.243
  19.000  648.414
  19.100  679.261
  19.200  815.097
  19.300  754.119
  19.400  808.197
  19.500  842.127
  19.600  837.593
  19.700 1224.659
  19.800 1378.694
  19.900 2332.739
  20.000 2708.947
  20.100 2215.794
  20.200 1423.099
  20.300 1111.657
  20.400 1022.253
  20.500  849.704
  20.600 1029.580
  20.700 1066.744
  20.800 1315.272
  20.900 1168.050
  21.000  783.790
  21.100  891.004
  21.200  678.219
  21.300  745.643
  21.400  736.119
  21.500  932.317
  21.600 1078.106
  21.700 1211.332
  21.800 1166.365
  21.900  972.414
  22.000  733.334
  22.100  726.579
  22.200  670.477
  22.300  836.908
  22.400  881.775
  22.500  788.823
  22.600  942.605
  22.700 1047.523
  22.800  910.440
  22.900 1277.200
  23.000 1479.159
  23.100 1488.245
  23.200 1409.440
  23.300 1078.435
  23.400  830.054
  23.500  868.079
  23.600  930.219
  23.700  992.648
  23.800 1145.180
  23.900 1327.623
  24.000 1502.794
  24.100 1431.062
  24.200 1230.910
  24.300 1111.599
  24.400  954.881
  24.500  731.609
  24.600  843.316
  24.700  714.286
  24.800  709.602
  24.900  837.813
  25.000  974.878
  25.100  890.340
  25.200 1127.318
  25.300 1240.937
  25.400 1177.094
  25.500 1384.731
  25.600 1723.880
  25.700 1548.382
  25.800 1410.606
  25.900 1055.665
  26.000  905.947
  26.100  829.137
  26.200  988.677
  26.300  926.755
  26.400 1085.281
  26.500 1011.257
  26.600 1423.740
  26.700 1715.468
  26.800 2226.566
  26.900 2427.629
  27.000 1925.114
  27.100 1460.614
  27.200 1196.756
  27.300 1073.250
  27.400  851.910
  27.500  820.039
  27.600  964.200
  27.700  951.787
  27.800 1166.875
  27.900 1479.889
  28.000 1794.171
  28.100 1414.867
  28.200 1209.718
  28.300 1097.227
  28.400  852.831
  28.500  959.383
  28.600  864.514
  28.700 1035.335
  28.800  841.483
  28.900  806.967
  29.000  723.978
  29.100  840.042
  29.200  865.396
  29.300  799.469
  29.400  642.506
  29.500  763.164
  29.600  708.850
  29.700  784.475
  29.800 1096.333
  29.900 1437.088
  30.000 1450.960
  30.100 1467.636
  30.200 1046.354
  30.300  929.125
  30.400  902.106
  30.500  652.687
  30.600  627.637
  30.700  716.787
  30.800  710.056
  30.900  723.639
  31.000  752.066
  31.100 1081.848
  31.200 1222.505
  31.300 1323.378
  31.400 1442.409
  31.500 1537.332
  31.600 1344.506
  31.700 1446.585
  31.800 1382.185
  31.900 1208.634
  32.000  944.755
  32.100  987.436
  32.200 1208.226
  32.300 1062.096
  32.400  930.338
  32.500  810.420
  32.600  874.126
  32.700  653.491
  32.800  666.489
  32.900  653.727
  33.000  826.649
  33.100  560.333
  33.200  732.924
  33.300  617.370
  33.400  529.462
  33.500  601.599
  33.600  702.716
  33.700  556.100
  33.800  626.764
  33.900  713.341
  34.000  603.119
  34.100  850.401
  34.200  828.767
  34.300  713.168
  34.400  714.718
  34.500  800.915
  34.600 1116.300
  34.700 1541.702
  34.800 1683.606
  34.900 1853.497
  35.000 2011.340
  35.100 2629.769
  35.200 2722.593
  35.300 2093.742
  35.400 1319.778
  35.500 1117.180
  35.600  769.926
  35.700  867.557
  35.800  821.357
  35.900  931.433
  36.000  921.878
  36.100  837.568
  36.200  833.936
  36.300  921.639
  36.400  891.012
  36.500  919.437
  36.600 1011.418
  36.700  950.475
  36.800 1045.857
  36.900 1093.373
  37.000  949.735
  37.100  933.289
  37.200  675.680
  37.300  765.746
  37.400  852.845
  37.500  824.801
  37.600  948.668
  37.700  990.827
  37.800  989.697
  37.900 1223.024
  38.000 1287.760
  38.100  935.826
  38.200  759.857
  38.300  877.142
  38.400  734.185
  38.500  816.641
  38.600  685.941
  38.700  525.002
  38.800  724.992
  38.900  695.338
  39.000  682.715
  39.100  548.998
  39.200  697.337
  39.300  550.135
  39.400  689.612
  39.500  568.691
  39.600  501.550
  39.700  618.531
  39.800  588.966
  39.900  607.982
  40.000  572.990
  40.100  829.591
  40.200  949.607
  40.300  976.979
  40.400  773.703
  40.500  901.480
  40.600  789.178
  40.700  668.722
  40.800  823.568
  40.900  962.987
  41.000  820.010
  41.100  822.386
  41.200  770.522
  41.300  765.579
  41.400  794.336
  41.500  681.703
  41.600  632.353
  41.700  670.485
  41.800  593.503
  41.900  588.628
  42.000  663.842
  42.100  957.528
  42.200  970.247
  42.300 1023.037
  42.400  930.271
  42.500 1139.747
  42.600  968.490
  42.700 1033.664
  42.800  789.520
  42.900  546.751
  43.000  694.807
  43.100  539.036
  43.200  452.783
  43.300  684.569
  43.400  650.021
  43.500  681.986
  43.600  446.724
  43.700  633.732
  43.800  654.783
  43.900  666.285
  44.000  684.452

File: 2M1-std-9.TXT
Sample
Comments
Filename	C:\WINDMAX\DATA\USERS\GEO\GEO_ER~1\Pyrenees\BULKMA~1\2M1-std2.raw
Goniometer	Ultima IV In-plane
Attachment	Auto sample changer (10 samples)
ScanningMode	2Theta/Theta
ScanningType	Continuos Scanning
X-Ray	40kV/44mA
DivSlit	2/3deg.
DivH.L.Slit	10mm
SctSlit	2/3deg.
RecSlit	0.3mm
Start	16
Stop	44
Step	0.02
Speed	0.3
Offset	0
  16.000  807.365
  16.100  610.883
  16.200  584.350
  16.300  709.130
  16.400  758.715
  16.500  734.851
  16.600  682.811
  16.700  668.131
  16.800  538.047
  16.900  679.927
  17.000  530.385
  17.100  598.544
  17.200  644.538
  17.300  541.507
  17.400  591.018
  17.500  694.677
  17.600  790.894
  17.700 1030.709
  17.800 1151.297
  17.900 1357.150
  18.000 1274.973
  18.100 1209.077
  18.200  866.216
  18.300  683.126
  18.400  861.056
  18.500  660.959
  18.600  742.696
  18.700  626.443
  18.800  662.562
  18.900  681.648
  19.000  695.176
  19.100  704.173
  19.200  674.259
  19.300  754.562
  19.400  656.867
  19.500  759.198
  19.600 1004.863
  19.700 1180.190
  19.800 1428.204
  19.900 2248.793
  20.000 2643.453
  20.100 2238.894
  20.200 1507.125
  20.300 1152.660
  20.400 1061.807
  20.500 1039.765
  20.600  956.685
  20.700 1051.267
  20.800 1280.319
  20.900 1046.109
  21.000  920.539
  21.100  742.983
  21.200  707.720
  21.300  842.165
  21.400  760.756
  21.500 1018.531
  21.600 1013.150
  21.700  997.657
  21.800 1061.360
  21.900  923.070
  22.000  839.739
  22.100  850.179
  22.200  740.953
  22.300  940.256
  22.400  960.141
  22.500  854.224
  22.600  870.521
  22.700  924.888
  22.800 1075.454
  22.900 1205.450
  23.000 1486.895
  23.100 1671.937
  23.200 1327.638
  23.300 1045.736
  23.400  745.913
  23.500  860.381
  23.600  934.017
  23.700 1010.829
  23.800 1207.465
  23.900 1510.145
  24.000 1620.040
  24.100 1546.674
  24.200 1275.718
  24.300 1152.535
  24.400  957.547
  24.500  721.080
  24.600  910.767
  24.700  778.707
  24.800  922.726
  24.900  927.664
  25.000  974.903
  25.100  950.847
  25.200 1165.654
  25.300 1135.434
  25.400 1129.907
  25.500 1520.804
  25.600 1765.589
  25.700 1573.213
  25.800 1352.790
  25.900 1136.153
  26.000  819.375
  26.100  859.201
  26.200  891.030
  26.300 1035.860
  26.400  937.374
  26.500 1157.205
  26.600 1515.404
  26.700 1848.380
  26.800 2264.308
  26.900 2326.004
  27.000 1869.096
  27.100 1338.912
  27.200 1004.973
  27.300  996.570
  27.400  803.109
  27.500  824.820
  27.600  829.915
  27.700  960.423
  27.800 1179.931
  27.900 1554.965
  28.000 1609.757
  28.100 1605.538
  28.200 1307.815
  28.300 1104.565
  28.400  894.327
  28.500  816.099
  28.600  783.839
  28.700 1043.858
  28.800 1026.464
  28.900  777.424
  29.000  794.953
  29.100  778.766
  29.200  842.501
  29.300  688.068
  29.400  676.662
  29.500  795.030
  29.600  671.802
  29.700  794.796
  29.800  944.403
  29.900 1405.043
  30.000 1506.793
  30.100 1330.686
  30.200 1145.365
  30.300 1017.656
  30.400  715.350
  30.500  772.163
  30.600  811.871
  30.700  753.598
  30.800  821.894
  30.900  640.060
  31.000  802.345
  31.100  950.097
  31.200 1065.057
  31.300 1401.049
  31.400 1661.955
  31.500 1555.265
  31.600 1534.554
  31.700 1518.580
  31.800 1370.354
  31.900 1293.785
  32.000 1064.360
  32.100 1027.579
  32.200 1099.110
  32.300 1200.512
  32.400  729.141
  32.500  647.067
  32.600  649.670
  32.700  628.171
  32.800  716.443
  32.900  596.949
  33.000  624.904
  33.100  579.351
  33.200  704.079
  33.300  707.253
  33.400  622.624
  33.500  586.815
  33.600  627.230
  33.700  533.769
  33.800  736.686
  33.900  592.182
  34.000  770.283
  34.100  864.987
  34.200  752.055
  34.300  784.832
  34.400  801.669
  34.500  989.743
  34.600 1275.150
  34.700 1498.849
  34.800 1718.205
  34.900 1736.799
  35.000 2008.880
  35.100 2619.937
  35.200 2796.494
  35.300 2033.179
  35.400 1457.957
  35.500 1133.622
  35.600  756.076
  35.700  714.896
  35.800  889.914
  35.900  809.836
  36.000  775.245
  36.100  731.085
  36.200  963.521
  36.300  702.310
  36.400  901.941
  36.500  865.541
  36.600 1100.382
  36.700 1096.900
  36.800 1130.466
  36.900 1057.330
  37.000 1043.187
  37.100  701.140
  37.200  871.571
  37.300  744.352
  37.400  792.302
  37.500  809.008
  37.600  877.301
  37.700 1128.523
  37.800 1036.948
  37.900 1132.818
  38.000 1038.819
  38.100 1085.756
  38.200  841.288
  38.300  717.510
  38.400  825.029
  38.500  807.101
  38.600  622.271
  38.700  741.370
  38.800  568.619
  38.900  689.831
  39.000  668.146
  39.100  551.866
  39.200  698.774
  39.300  602.697
  39.400  556.234
  39.500  637.205
  39.600  677.227
  39.700  723.321
  39.800  539.304
  39.900  556.302
  40.000  557.939
  40.100  746.736
  40.200  715.244
  40.300  897.588
  40.400  745.581
  40.500  795.995
  40.600  684.856
  40.700  803.097
  40.800  773.948
  40.900  950.810
  41.000  754.638
  41.100  766.843
  41.200  862.750
  41.300  744.057
  41.400  737.658
  41.500  863.784
  41.600  818.598
  41.700  743.303
  41.800  771.926
  41.900  748.273
  42.000  882.717
  42.100  784.273
  42.200 1041.007
  42.300  880.187
  42.400  885.093
  42.500  928.445
  42.600  919.370
  42.700  949.590
  42.800  667.115
  42.900  754.574
  43.000  740.912
  43.100  643.518
  43.200  682.614
  43.300  445.413
  43.400  660.580
  43.500  518.239
  43.600  466.287
  43.700  542.549
  43.800  717.336
  43.900  679.758
  44.000  710.943

File: 2M1-std-10.TXT
Sample
Comments
Filename	C:\WINDMAX\DATA\USERS\GEO\GEO_ER~1\Pyrenees\BULKMA~1\2M1-std2.raw
Goniometer	Ultima IV In-plane
Attachment	Auto sample changer (10 samples)
ScanningMode	2Theta/Theta
ScanningType	Continuos Scanning
X-Ray	40kV/44mA
DivSlit	2/3deg.
DivH.L.Slit	10mm
SctSlit	2/3deg.
RecSlit	0.3mm
Start	16
Stop	44
Step	0.02
Speed	0.3
Offset	0
  16.000  604.256
  16.100  749.004
  16.200  751.372
  16.300  560.745
  16.400  724.040
  16.500  726.605
  16.600  718.824
  16.700  590.442
  16.800  733.577
  16.900  598.246
  17.000  599.625
  17.100  533.390
  17.200  525.240
  17.300  574.587
  17.400  781.330
  17.500  632.743
  17.600  739.796
  17.700  903.438
  17.800 1137.252
  17.900 1398.716
  18.000 1416.554
  18.100 1160.919
  18.200  991.716
  18.300  694.580
  18.400  876.597
  18.500  650.001
  18.600  814.709
  18.700  774.359
  18.800  778.476
  18.900  736.575
  19.000  554.610
  19.100  758.616
  19.200  642.894
  19.300  722.164
  19.400  713.384
  19.500  688.537
  19.600  945.551
  19.700 1232.003
  19.800 1617.510
  19.900 2198.514
  20.000 2780.617
  20.100 2237.506
  20.200 1427.844
  20.300 1076.678
  20.400 1021.647
  20.500 1071.639
  20.600 1064.204
  20.700 1022.419
  20.800 1308.761
  20.900 1049.087
  21.000  949.238
  21.100  766.763
  21.200  673.457
  21.300  737.770
  21.400  940.052
  21.500  929.925
  21.600  945.227
  21.700 1169.422
  21.800 1067.663
  21.900 1025.626
  22.000  896.657
  22.100  840.734
  22.200  916.361
  22.300  735.529
  22.400  832.327
  22.500  852.681
  22.600  890.586
  22.700 1035.175
  22.800 1086.360
  22.900 1270.977
  23.000 1507.101
  23.100 1622.159
  23.200 1380.942
  23.300  987.276
  23.400  993.849
  23.500  771.249
  23.600  803.320
  23.700  918.777
  23.800 1117.057
  23.900 1449.236
  24.000 1570.119
  24.100 1355.202
  24.200 1312.791
  24.300 1026.396
  24.400  965.520
  24.500  855.319
  24.600  833.004
  24.700  870.212
  24.800  764.607
  24.900  991.387
  25.000  869.446
  25.100 1085.427
  25.200 1109.781
  25.300 1038.449
  25.400 1095.701
  25.500 1541.019
  25.600 1565.519
  25.700 1690.747
  25.800 1221.728
  25.900 1084.125
  26.000 1006.351
  26.100  960.331
  26.200  981.800
  26.300  825.237
  26.400  979.051
  26.500 1103.609
  26.600 1417.729
  26.700 1912.341
  26.800 2236.229
  26.900 2393.993
  27.000 1970.401
  27.100 1479.156
  27.200 1148.721
  27.300 1034.447
  27.400  871.090
  27.500  900.366
  27.600  856.369
  27.700 1022.874
  27.800 1229.195
  27.900 1552.207
  28.000 1648.615
  28.100 1528.416
  28.200 1237.973
  28.300 1181.602
  28.400 1038.431
  28.500  795.763
  28.600  749.607
  28.700  813.056
  28.800  813.175
  28.900  770.921
  29.000  739.989
  29.100  810.607
  29.200  818.107
  29.300  824.682
  29.400  809.530
  29.500  870.748
  29.600  914.331
  29.700  895.705
  29.800 1133.660
  29.900 1412.295
  30.000 1425.878
  30.100 1465.919
  30.200 1014.409
  30.300  979.871
  30.400  845.263
  30.500  622.604
  30.600  808.810
  30.700  574.559
  30.800  712.451
  30.900  808.117
  31.000  915.384
  31.100 1060.503
  31.200 1190.424
  31.300 1334.757
  31.400 1441.944
  31.500 1422.281
  31.600 1477.442
  31.700 1329.344
  31.800 1442.317
  31.900 1072.389
  32.000 1000.814
  32.100 1105.257
  32.200 1283.714
  32.300 1080.188
  32.400  950.579
  32.500  650.647
  32.600  647.797
  32.700  658.406
  32.800  809.059
  32.900  629.651
  33.000  654.266
  33.100  804.392
  33.200  735.157
  33.300  666.575
  33.400  690.931
  33.500  544.159
  33.600  659.625
  33.700  783.397
  33.800  794.519
  33.900  748.647
  34.000  694.688
  34.100  712.673
  34.200  845.636
  34.300  860.461
  34.400  810.279
  34.500  966.939
  34.600 1183.797
  34.700 1433.636
  34.800 1706.396
  34.900 1899.974
  35.000 2057.035
  35.100 2770.635
  35.200 2723.617
  35.300 2020.588
  35.400 1492.340
  35.500 1054.988
  35.600  795.246
  35.700  737.404
  35.800  742.938
  35.900  797.930
  36.000  829.688
  36.100  976.511
  36.200  919.807
  36.300  810.760
  36.400  875.047
  36.500 1012.698
  36.600  983.554
  36.700 1172.126
  36.800 1016.267
  36.900 1075.020
  37.000  995.182
  37.100  889.141
  37.200  780.479
  37.300  846.195
  37.400  925.439
  37.500  897.137
  37.600  922.165
  37.700  930.799
  37.800 1136.084
  37.900 1107.287
  38.000 1274.945
  38.100  887.333
  38.200  794.108
  38.300  906.804
  38.400  752.923
  38.500  572.590
  38.600  669.083
  38.700  497.298
  38.800  652.970
  38.900  619.288
  39.000  591.107
  39.100  562.090
  39.200  513.433
  39.300  700.304
  39.400  695.088
  39.500  712.013
  39.600  649.092
  39.700  597.600
  39.800  758.798
  39.900  561.302
  40.000  542.521
  40.100  775.765
  40.200  887.932
  40.300  959.629
  40.400  793.397
  40.500  771.216
  40.600  922.192
  40.700  659.026
  40.800  764.438
  40.900  825.403
  41.000  731.387
  41.100  841.982
  41.200  864.964
  41.300  795.525
  41.400  697.337
  41.500  836.015
  41.600  795.330
  41.700  590.582
  41.800  570.403
  41.900  705.638
  42.000  690.192
  42.100  908.788
  42.200  941.764
  42.300  906.798
  42.400  954.975
  42.500 1010.887
  42.600 1015.597
  42.700  950.210
  42.800  794.531
  42.900  597.036
  43.000  600.868
  43.100  655.299
  43.200  555.974
  43.300  589.586
  43.400  576.577
  43.500  438.352
  43.600  463.242
  43.700  553.080
  43.800  479.910
  43.900  659.222
  44.000  574.503

File: 2M1-std-11.TXT
Sample
Comments
Filename	C:\WINDMAX\DATA\USERS\GEO\GEO_ER~1\Pyrenees\BULKMA~1\2M1-std2.raw
Goniometer	Ultima IV In-plane
Attachment	Auto sample changer (10 samples)
ScanningMode	2Theta/Theta
ScanningType	Continuos Scanning
X-Ray	40kV/44mA
DivSlit	2/3deg.
DivH.L.Slit	10mm
SctSlit	2/3deg.
RecSlit	0.3mm
Start	16
Stop	44
Step	0.02
Speed	0.3
Offset	0
  16.000  567.595
  16.100  738.528
  16.200  779.949
  16.300  707.869
  16.400  628.932
  16.500  680.609
  16.600  728.474
  16.700  579.525
  16.800  552.913
  16.900  579.198
  17.000  632.837
  17.100  675.557
  17.200  713.337
  17.300  656.992
  17.400  684.177
  17.500  691.894
  17.600  750.268
  17.700  968.409
  17.800 1119.675
  17.900 1292.558
  18.000 1252.682
  18.100 1036.626
  18.200  861.524
  18.300  879.591
  18.400  810.171
  18.500  837.041
  18.600  685.819
  18.700  786.922
  18.800  699.843
  18.900  834.483
  19.000  674.710
  19.100  779.499
  19.200  641.775
  19.300  839.949
  19.400  772.502
  19.500  857.620
  19.600 1048.073
  19.700 1173.723
  19.800 1409.688
  19.900 2177.022
  20.000 2722.360
  20.100 2470.728
  20.200 1513.704
  20.300 1247.565
  20.400 1011.817
  20.500  894.632
  20.600 1023.511
  20.700 1150.629
  20.800 1188.074
  20.900  981.030
  21.000  866.153
  21.100  714.802
  21.200  775.368
  21.300  772.110
  21.400  726.567
  21.500  910.667
  21.600 1163.294
  21.700 1198.817
  21.800  934.225
  21.900 1022.677
  22.000  923.494
  22.100  723.604
  22.200  735.835
  22.300  698.990
  22.400  834.995
  22.500 1030.905
  22.600  908.778
  22.700  948.193
  22.800 1034.273
  22.900 1122.237
  23.000 1469.180
  23.100 1654.275
  23.200 1283.297
  23.300 1162.155
  23.400  805.143
  23.500  761.612
  23.600  793.452
  23.700 1046.494
  23.800 1209.624
  23.900 1422.997
  24.000 1613.624
  24.100 1390.550
  24.200 1298.744
  24.300 1104.573
  24.400  961.532
  24.500  785.929
  24.600  856.086
  24.700  900.169
  24.800  938.771
  24.900  778.533
  25.000  844.866
  25.100 1042.375
  25.200  980.039
  25.300 1244.788
  25.400 1180.054
  25.500 1499.178
  25.600 1782.655
  25.700 1599.778
  25.800 1302.095
  25.900  886.964
  26.000  925.567
  26.100  852.289
  26.200  945.447
  26.300  910.134
  26.400 1089.985
  26.500 1076.118
  26.600 1276.290
  26.700 1756.904
  26.800 2197.416
  26.900 2374.100
  27.000 1945.010
  27.100 1312.380
  27.200 1128.466
  27.300  920.555
  27.400  961.387
  27.500 1025.794
  27.600  903.829
  27.700 1134.273
  27.800 1131.780
  27.900 1489.464
  28.000 1695.946
  28.100 1560.631
  28.200 1270.587
  28.300 1191.749
  28.400  947.469
  28.500  978.418
  28.600  930.255
  28.700  815.409
  28.800  781.377
  28.900  812.598
  29.000  762.067
  29.100  884.012
  29.200  887.294
  29.300  826.151
  29.400  620.775
  29.500  695.840
  29.600  826.320
  29.700  988.872
  29.800 1026.940
  29.900 1438.625
  30.000 1574.573
  30.100 1356.371
  30.200 1167.763
  30.300  848.452
  30.400  889.125
  30.500  722.490
  30.600  593.862
  30.700  674.866
  30.800  729.921
  30.900  682.464
  31.000  832.126
  31.100  940.454
  31.200 1182.378
  31.300 1549.493
  31.400 1509.887
  31.500 1539.387
  31.600 1377.788
  31.700 1409.563
  31.800 1409.498
  31.900 1256.313
  32.000  909.846
  32.100 1032.390
  32.200 1038.721
  32.300  981.036
  32.400  965.228
  32.500  811.631
  32.600  804.012
  32.700  576.439
  32.800  560.876
  32.900  659.718
  33.000  719.967
  33.100  731.145
  33.200  693.060
  33.300  707.557
  33.400  692.960
  33.500  705.102
  33.600  531.706
  33.700  570.234
  33.800  600.629
  33.900  610.727
  34.000  707.322
  34.100  653.962
  34.200  636.529
  34.300  824.754
  34.400  792.790
  34.500  948.203
  34.600 1159.367
  34.700 1436.916
  34.800 1747.163
  34.900 1809.975
  35.000 1982.326
  35.100 2649.091
  35.200 2717.366
  35.300 2048.374
  35.400 1439.925
  35.500  971.934
  35.600  871.742
  35.700  827.588
  35.800  835.070
  35.900  870.009
  36.000  811.766
  36.100  897.222
  36.200  754.008
  36.300  901.148
  36.400  794.794
  36.500 1062.117
  36.600 1218.144
  36.700  950.550
  36.800  908.044
  36.900 1028.994
  37.000  825.202
  37.100  797.252
  37.200  735.470
  37.300  855.708
  37.400  869.932
  37.500  804.371
  37.600  867.946
  37.700 1130.798
  37.800 1121.205
  37.900 1157.215
  38.000 1116.060
  38.100  907.134
  38.200  988.756
  38.300  728.978
  38.400  744.158
  38.500  637.297
  38.600  529.509
  38.700  617.371
  38.800  577.920
  38.900  496.728
  39.000  506.508
  39.100  699.824
  39.200  676.052
  39.300  666.814
  39.400  750.577
  39.500  640.499
  39.600  498.644
  39.700  634.834
  39.800  524.360
  39.900  586.190
  40.000  760.356
  40.100  700.072
  40.200  722.268
  40.300  760.935
  40.400  825.013
  40.500  769.701
  40.600  852.055
  40.700  852.935
  40.800  814.838
  40.900  972.075
  41.000  924.158
  41.100  928.294
  41.200  901.221
  41.300  686.115
  41.400  816.550
  41.500  896.966
  41.600  844.874
  41.700  771.536
  41.800  601.729
  41.900  757.963
  42.000  795.678
  42.100  846.483
  42.200  855.710
  42.300  919.843
  42.400  955.394
  42.500  918.360
  42.600 1001.127
  42.700 1042.597
  42.800  784.536
  42.900  666.364
  43.000  584.035
  43.100  597.278
  43.200  492.026
  43.300  663.272
  43.400  638.857
  43.500  515.667
  43.600  684.107
  43.700  434.306
  43.800  525.657
  43.900  700.754
  44.000  512.537