Folder: Linux_class/xrd_output/random_files (part 8)

File: 2M1-std-28.TXT
Sample
Comments
Filename	C:\WINDMAX\DATA\USERS\GEO\GEO_ER~1\Pyrenees\BULKMA~1\2M1-std2.raw
Goniometer	Ultima IV In-plane
Attachment	Auto sample changer (10 samples)
ScanningMode	2Theta/Theta
ScanningType	Continuos Scanning
X-Ray	40kV/44mA
DivSlit	2/3deg.
DivH.L.Slit	10mm
SctSlit	2/3deg.
RecSlit	0.3mm
Start	16
Stop	44
Step	0.02
Speed	0.3
Offset	0
  16.000  663.488
  16.100  803.073
  16.200  766.460
  16.300  584.458
  16.400  526.943
  16.500  727.398
  16.600  538.505
  16.700  658.730
  16.800  575.060
  16.900  773.079
  17.000  764.480
  17.100  610.857
  17.200  679.652
  17.300  748.763
  17.400  808.307
  17.500  839.156
  17.600  857.233
  17.700 1022.977
  17.800 1194.812
  17.900 1306.915
  18.000 1260.865
  18.100 1148.855
  18.200  975.098
  18.300  766.565
  18.400  751.015
  18.500  641.158
  18.600  805.425
  18.700  617.976
  18.800  845.352
  18.900  834.748
  19.000  735.749
  19.100  742.230
  19.200  663.134
  19.300  823.134
  19.400  816.334
  19.500  822.901
  19.600  935.891
  19.700 1092.783
  19.800 1635.831
  19.900 2329.872
  20.000 2716.283
  20.100 2241.703
  20.200 1437.624
  20.300 1206.920
  20.400 1053.409
  20.500 1009.375
  20.600 1116.125
  20.700 1037.882
  20.800 1258.740
  20.900 1006.411
  21.000  972.112
  21.100  910.299
  21.200  876.416
  21.300  904.876
  21.400  953.046
  21.500  831.724
  21.600  948.909
  21.700 1104.335
  21.800 1153.360
  21.900  952.645
  22.000  905.991
  22.100  879.490
  22.200  695.951
  22.300  913.489
  22.400  733.157
  22.500  957.226
  22.600  860.538
  22.700 1021.976
  22.800 1130.820
  22.900 1298.984
  23.000 1423.199
  23.100 1710.478
  23.200 1202.237
  23.300 1040.434
  23.400  933.825
  23.500  978.761
  23.600  895.692
  23.700 1127.994
  23.800 1302.232
  23.900 1520.597
  24.000 1537.235
  24.100 1340.098
  24.200 1201.011
  24.300 1101.329
  24.400  890.461
  24.500  833.351
  24.600  785.216
  24.700  803.195
  24.800  700.567
  24.900  846.079
  25.000  977.409
  25.100  998.696
  25.200  970.253
  25.300 1074.154
  25.400 1069.839
  25.500 1472.169
  25.600 1720.193
  25.700 1675.682
  25.800 1419.157
  25.900 1048.656
  26.000 1030.675
  26.100  946.580
  26.200  874.409
  26.300 1001.722
  26.400  958.313
  26.500 1014.952
  26.600 1451.869
  26.700 1806.523
  26.800 2255.165
  26.900 2414.920
  27.000 1927.273
  27.100 1411.170
  27.200 1023.137
  27.300 1058.531
  27.400  861.569
  27.500 1001.519
  27.600  951.767
  27.700 1118.420
  27.800 1236.737
  27.900 1333.898
  28.000 1754.121
  28.100 1497.758
  28.200 1125.150
  28.300  967.272
  28.400  916.233
  28.500  762.249
  28.600  845.236
  28.700  951.903
  28.800  970.000
  28.900  865.254
  29.000  971.574
  29.100  724.869
  29.200  872.791
  29.300  821.949
  29.400  803.130
  29.500  822.755
  29.600  871.442
  29.700  933.607
  29.800 1184.381
  29.900 1314.030
  30.000 1471.880
  30.100 1461.807
  30.200 1182.948
  30.300  994.499
  30.400  741.665
  30.500  787.867
  30.600  730.682
  30.700  754.323
  30.800  793.777
  30.900  678.406
  31.000  727.650
  31.100 1070.559
  31.200 1156.216
  31.300 1345.065
  31.400 1463.903
  31.500 1421.110
  31.600 1389.854
  31.700 1368.406
  31.800 1334.280
  31.900 1059.105
  32.000  926.521
  32.100 1214.825
  32.200 1090.001
  32.300 1049.975
  32.400  720.290
  32.500  748.364
  32.600  830.913
  32.700  811.820
  32.800  676.834
  32.900  765.321
  33.000  641.252
  33.100  606.661
  33.200  608.848
  33.300  656.383
  33.400  768.429
  33.500  644.147
  33.600  711.805
  33.700  618.553
  33.800  620.203
  33.900  738.284
  34.000  765.146
  34.100  835.247
  34.200  654.457
  34.300  693.425
  34.400  860.403
  34.500  774.556
  34.600 1104.454
  34.700 1474.123
  34.800 1638.344
  34.900 1901.750
  35.000 2091.420
  35.100 2627.747
  35.200 2803.258
  35.300 2214.933
  35.400 1282.204
  35.500  969.658
  35.600  973.235
  35.700  840.835
  35.800  781.262
  35.900  712.989
  36.000  902.881
  36.100  860.482
  36.200  766.001
  36.300  894.004
  36.400  795.546
  36.500  934.579
  36.600 1173.789
  36.700 1053.278
  36.800  894.986
  36.900  942.389
  37.000  792.422
  37.100  831.663
  37.200  745.829
  37.300  743.604
  37.400  797.398
  37.500  783.477
  37.600  862.808
  37.700  995.823
  37.800 1075.465
  37.900 1212.822
  38.000 1225.467
  38.100 1028.490
  38.200  777.867
  38.300  783.544
  38.400  675.085
  38.500  792.631
  38.600  522.877
  38.700  643.566
  38.800  546.520
  38.900  584.885
  39.000  622.784
  39.100  569.583
  39.200  613.944
  39.300  667.362
  39.400  702.272
  39.500  526.068
  39.600  582.257
  39.700  756.416
  39.800  654.957
  39.900  716.687
  40.000  626.621
  40.100  870.729
  40.200  796.831
  40.300  839.196
  40.400  913.597
  40.500  872.912
  40.600  787.932
  40.700  779.823
  40.800  874.367
  40.900  789.660
  41.000  726.959
  41.100  926.852
  41.200  747.789
  41.300  677.355
  41.400  778.712
  41.500  737.215
  41.600  671.448
  41.700  750.173
  41.800  630.515
  41.900  797.014
  42.000  643.334
  42.100  746.025
  42.200  948.034
  42.300  917.556
  42.400 1084.623
  42.500 1068.911
  42.600 1146.152
  42.700 1050.224
  42.800  665.469
  42.900  734.192
  43.000  521.697
  43.100  499.615
  43.200  585.875
  43.300  430.921
  43.400  659.359
  43.500  630.898
  43.600  652.404
  43.700  555.293
  43.800  557.480
  43.900  513.426
  44.000  611.064

File: 2M1-std-29.TXT
Sample
Comments
Filename	C:\WINDMAX\DATA\USERS\GEO\GEO_ER~1\Pyrenees\BULKMA~1\2M1-std2.raw
Goniometer	Ultima IV In-plane
Attachment	Auto sample changer (10 samples)
ScanningMode	2Theta/Theta
ScanningType	Continuos Scanning
X-Ray	40kV/44mA
DivSlit	2/3deg.
DivH.L.Slit	10mm
SctSlit	2/3deg.
RecSlit	0.3mm
Start	16
Stop	44
Step	0.02
Speed	0.3
Offset	0
  16.000  642.906
  16.100  665.568
  16.200  763.798
  16.300  713.860
  16.400  576.309
  16.500  709.164
  16.600  586.661
  16.700  680.093
  16.800  772.714
  16.900  584.822
  17.000  648.900
  17.100  632.692
  17.200  543.307
  17.300  543.128
  17.400  563.377
  17.500  806.175
  17.600  905.516
  17.700  783.143
  17.800 1135.018
  17.900 1436.045
  18.000 1246.846
  18.100 1222.220
  18.200 1020.715
  18.300  759.329
  18.400  649.955
  18.500  762.827
  18.600  675.045
  18.700  657.914
  18.800  713.127
  18.900  724.501
  19.000  675.861
  19.100  696.904
  19.200  676.234
  19.300  843.019
  19.400  885.802
  19.500  786.294
  19.600  845.434
  19.700 1280.076
  19.800 1546.282
  19.900 2270.392
  20.000 2791.565
  20.100 2433.891
  20.200 1488.896
  20.300 1203.294
  20.400  984.760
  20.500  850.637
  20.600  886.987
  20.700 1050.176
  20.800 1179.482
  20.900  992.354
  21.000 1008.763
  21.100  849.262
  21.200  868.440
  21.300  907.382
  21.400  913.061
  21.500  867.115
  21.600  920.761
  21.700 1124.147
  21.800 1087.038
  21.900  853.708
  22.000  718.807
  22.100  916.142
  22.200  910.340
  22.300  946.866
  22.400  881.386
  22.500  973.108
  22.600  922.551
  22.700  919.884
  22.800  988.916
  22.900 1148.260
  23.000 1503.043
  23.100 1585.955
  23.200 1213.078
  23.300  954.353
  23.400  887.017
  23.500  956.868
  23.600  869.038
  23.700 1048.724
  23.800 1069.700
  23.900 1544.026
  24.000 1512.647
  24.100 1363.639
  24.200 1285.562
  24.300 1094.039
  24.400  864.419
  24.500  741.086
  24.600  811.298
  24.700  747.774
  24.800  742.473
  24.900  975.237
  25.000  970.034
  25.100 1058.766
  25.200 1155.196
  25.300 1266.522
  25.400 1069.188
  25.500 1532.216
  25.600 1607.493
  25.700 1725.974
  25.800 1399.790
  25.900 1063.226
  26.000  864.397
  26.100  831.866
  26.200  967.910
  26.300  816.084
  26.400  886.560
  26.500 1106.751
  26.600 1393.718
  26.700 1908.526
  26.800 2309.082
  26.900 2269.506
  27.000 1922.180
  27.100 1273.473
  27.200 1159.300
  27.300  911.404
  27.400  923.231
  27.500  944.518
  27.600  889.525
  27.700  999.365
  27.800 1105.824
  27.900 1498.398
  28.000 1777.416
  28.100 1429.396
  28.200 1287.454
  28.300 1058.467
  28.400  946.020
  28.500  976.757
  28.600  961.684
  28.700  915.201
  28.800  863.921
  28.900  952.400
  29.000  849.378
  29.100  903.871
  29.200  858.592
  29.300  721.405
  29.400  755.914
  29.500  667.687
  29.600  684.116
  29.700  884.767
  29.800 1046.793
  29.900 1294.917
  30.000 1528.817
  30.100 1394.175
  30.200 1178.854
  30.300  842.509
  30.400  846.759
  30.500  847.514
  30.600  683.034
  30.700  760.856
  30.800  856.439
  30.900  708.396
  31.000  926.778
  31.100  934.728
  31.200 1142.434
  31.300 1343.836
  31.400 1574.629
  31.500 1489.300
  31.600 1582.490
  31.700 1463.635
  31.800 1229.838
  31.900 1050.666
  32.000 1026.735
  32.100 1129.406
  32.200 1285.413
  32.300 1095.659
  32.400  789.905
  32.500  831.078
  32.600  631.748
  32.700  674.599
  32.800  579.980
  32.900  648.880
  33.000  738.895
  33.100  671.003
  33.200  770.038
  33.300  710.980
  33.400  581.160
  33.500  706.809
  33.600  622.114
  33.700  705.772
  33.800  624.268
  33.900  781.980
  34.000  634.091
  34.100  652.795
  34.200  884.568
  34.300  726.716
  34.400  823.107
  34.500  931.358
  34.600 1142.679
  34.700 1497.837
  34.800 1791.978
  34.900 1699.650
  35.000 2106.859
  35.100 2638.330
  35.200 2827.052
  35.300 2191.665
  35.400 1291.678
  35.500  961.276
  35.600  978.566
  35.700  877.088
  35.800  680.187
  35.900  949.815
  36.000  913.276
  36.100  741.005
  36.200  811.214
  36.300  772.503
  36.400  855.707
  36.500 1082.032
  36.600 1010.075
  36.700  958.478
  36.800  991.334
  36.900 1045.241
  37.000  893.580
  37.100  841.615
  37.200  831.494
  37.300  692.740
  37.400  810.355
  37.500  940.048
  37.600  884.842
  37.700 1154.843
  37.800 1057.723
  37.900 1285.250
  38.000 1237.267
  38.100 1114.624
  38.200  910.355
  38.300  717.906
  38.400  809.003
  38.500  687.641
  38.600  719.658
  38.700  547.167
  38.800  731.984
  38.900  586.937
  39.000  672.639
  39.100  578.557
  39.200  670.468
  39.300  623.557
  39.400  718.370
  39.500  625.364
  39.600  657.648
  39.700  551.125
  39.800  519.052
  39.900  698.433
  40.000  602.464
  40.100  731.409
  40.200  740.443
  40.300  937.904
  40.400  935.024
  40.500  682.371
  40.600  693.119
  40.700  751.246
  40.800  829.655
  40.900  894.734
  41.000  858.424
  41.100  736.818
  41.200  680.965
  41.300  889.475
  41.400  744.506
  41.500  727.860
  41.600  658.661
  41.700  724.915
  41.800  629.106
  41.900  763.756
  42.000  850.463
  42.100  878.025
  42.200  904.533
  42.300  971.251
  42.400  875.322
  42.500 1010.248
  42.600 1013.808
  42.700  962.556
  42.800  842.705
  42.900  546.496
  43.000  642.617
  43.100  549.954
  43.200  576.499
  43.300  452.063
  43.400  459.309
  43.500  680.385
  43.600  470.323
  43.700  612.631
  43.800  554.501
  43.900  564.944
  44.000  482.613

File: 2M1-std-30.TXT
Sample
Comments
Filename	C:\WINDMAX\DATA\USERS\GEO\GEO_ER~1\Pyrenees\BULKMA~1\2M1-std2.raw
Goniometer	Ultima IV In-plane
Attachment	Auto sample changer (10 samples)
ScanningMode	2Theta/Theta
ScanningType	Continuos Scanning
X-Ray	40kV/44mA
DivSlit	2/3deg.
DivH.L.Slit	10mm
SctSlit	2/3deg.
RecSlit	0.3mm
Start	16
Stop	44
Step	0.02
Speed	0.3
Offset	0
  16.000  693.259
  16.100  762.677
  16.200  569.534
  16.300  636.202
  16.400  526.597
  16.500  609.112
  16.600  533.079
  16.700  645.985
  16.800  550.174
  16.900  708.899
  17.000  541.642
  17.100  693.059
  17.200  728.699
  17.300  555.664
  17.400  776.916
  17.500  781.783
  17.600  769.314
  17.700  950.401
  17.800 1130.436
  17.900 1330.527
  18.000 1245.754
  18.100 1102.742
  18.200  962.255
  18.300  888.797
  18.400  630.949
  18.500  832.596
  18.600  770.778
  18.700  634.060
  18.800  846.566
  18.900  828.658
  19.000  697.112
  19.100  580.705
  19.200  651.085
  19.300  814.685
  19.400  844.294
  19.500  852.240
  19.600  910.906
  19.700 1125.668
  19.800 1481.152
  19.900 2241.097
  20.000 2561.223
  20.100 2448.990
  20.200 1462.137
  20.300 1124.774
  20.400 1159.198
  20.500 1076.033
  20.600  929.544
  20.700 1033.745
  20.800 1173.245
  20.900 1043.355
  21.000  871.592
  21.100  898.492
  21.200  683.740
  21.300  778.806
  21.400  881.886
  21.500  994.981
  21.600  924.530
  21.700 1097.026
  21.800 1167.025
  21.900 1012.066
  22.000  940.830
  22.100  870.306
  22.200  884.993
  22.300  742.265
  22.400  945.354
  22.500  907.716
  22.600  795.826
  22.700  975.106
  22.800 1096.463
  22.900 1165.095
  23.000 1485.171
  23.100 1519.647
  23.200 1224.947
  23.300  913.569
  23.400  905.017
  23.500  919.279
  23.600  981.752
  23.700 1066.193
  23.800 1311.041
  23.900 1350.950
  24.000 1484.083
  24.100 1327.114
  24.200 1432.682
  24.300 1197.168
  24.400 1060.199
  24.500  821.765
  24.600  727.378
  24.700  919.869
  24.800  866.439
  24.900  918.732
  25.000  921.282
  25.100 1016.330
  25.200  999.157
  25.300 1122.032
  25.400 1331.175
  25.500 1359.332
  25.600 1736.951
  25.700 1691.126
  25.800 1238.013
  25.900 1077.869
  26.000  961.853
  26.100  896.826
  26.200  785.204
  26.300  853.281
  26.400  935.854
  26.500 1186.649
  26.600 1448.491
  26.700 1759.505
  26.800 2349.494
  26.900 2389.563
  27.000 1879.686
  27.100 1415.177
  27.200 1199.553
  27.300 1010.035
  27.400  774.413
  27.500  861.284
  27.600  870.042
  27.700  959.387
  27.800 1117.281
  27.900 1406.268
  28.000 1614.095
  28.100 1461.751
  28.200 1296.733
  28.300 1137.089
  28.400  852.704
  28.500  814.422
  28.600  834.126
  28.700  977.705
  28.800  945.628
  28.900  809.366
  29.000  711.880
  29.100  792.330
  29.200  693.505
  29.300  617.250
  29.400  803.497
  29.500  691.827
  29.600  741.202
  29.700  818.321
  29.800 1131.489
  29.900 1269.750
  30.000 1458.347
  30.100 1320.355
  30.200 1179.164
  30.300  978.294
  30.400  669.206
  30.500  671.106
  30.600  668.967
  30.700  723.932
  30.800  833.311
  30.900  814.591
  31.000  697.501
  31.100 1005.822
  31.200 1155.491
  31.300 1388.752
  31.400 1555.763
  31.500 1367.204
  31.600 1532.827
  31.700 1505.574
  31.800 1467.052
  31.900 1272.771
  32.000 1142.435
  32.100 1054.880
  32.200 1151.951
  32.300 1187.761
  32.400  800.442
  32.500  674.751
  32.600  630.675
  32.700  751.924
  32.800  772.101
  32.900  611.741
  33.000  595.896
  33.100  597.880
  33.200  583.071
  33.300  708.191
  33.400  675.769
  33.500  625.038
  33.600  659.890
  33.700  666.749
  33.800  650.471
  33.900  811.780
  34.000  723.174
  34.100  615.994
  34.200  876.689
  34.300  640.584
  34.400  675.707
  34.500  783.873
  34.600 1269.689
  34.700 1512.697
  34.800 1616.832
  34.900 1796.688
  35.000 1939.795
  35.100 2690.893
  35.200 2712.297
  35.300 2103.383
  35.400 1280.625
  35.500 1101.053
  35.600 1001.587
  35.700  809.862
  35.800  718.995
  35.900  808.284
  36.000  735.058
  36.100  835.151
  36.200  876.597
  36.300  916.543
  36.400  942.667
  36.500  919.535
  36.600 1123.537
  36.700  948.275
  36.800 1017.934
  36.900  891.237
  37.000 1021.666
  37.100  807.743
  37.200  663.208
  37.300  871.988
  37.400  806.105
  37.500  804.406
  37.600  954.466
  37.700 1008.069
  37.800 1066.873
  37.900 1163.798
  38.000 1038.005
  38.100 1019.476
  38.200  941.263
  38.300  798.053
  38.400  710.968
  38.500  613.357
  38.600  581.032
  38.700  576.667
  38.800  562.921
  38.900  507.757
  39.000  638.454
  39.100  624.350
  39.200  510.098
  39.300  504.974
  39.400  748.838
  39.500  467.791
  39.600  749.871
  39.700  717.893
  39.800  570.768
  39.900  751.412
  40.000  747.369
  40.100  701.837
  40.200  912.843
  40.300  991.251
  40.400  836.162
  40.500  711.639
  40.600  879.725
  40.700  652.479
  40.800  952.846
  40.900  836.232
  41.000  777.309
  41.100  758.473
  41.200  841.226
  41.300  892.888
  41.400  908.026
  41.500  665.967
  41.600  709.638
  41.700  669.754
  41.800  678.294
  41.900  676.363
  42.000  772.470
  42.100  860.477
  42.200  801.562
  42.300  826.684
  42.400 1109.155
  42.500  994.095
  42.600  940.890
  42.700  922.404
  42.800  782.437
  42.900  657.417
  43.000  659.782
  43.100  649.570
  43.200  606.946
  43.300  508.754
  43.400  541.054
  43.500  659.016
  43.600  691.205
  43.700  499.639
  43.800  598.710
  43.900  599.389
  44.000  709.034

File: 2M1-std-31.TXT
Sample
Comments
Filename	C:\WINDMAX\DATA\USERS\GEO\GEO_ER~1\Pyrenees\BULKMA~1\2M1-std2.raw
Goniometer	Ultima IV In-plane
Attachment	Auto sample changer (10 samples)
ScanningMode	2Theta/Theta
ScanningType	Continuos Scanning
X-Ray	40kV/44mA
DivSlit	2/3deg.
DivH.L.Slit	10mm
SctSlit	2/3deg.
RecSlit	0.3mm
Start	16
Stop	44
Step	0.02
Speed	0.3
Offset	0
  16.000  766.454
  16.100  759.086
  16.200  716.639
  16.300  623.978
  16.400  528.059
  16.500  566.886
  16.600  508.535
  16.700  710.365
  16.800  679.755
  16.900  569.988
  17.000  610.113
  17.100  583.402
  17.200  641.609
  17.300  589.231
  17.400  586.999
  17.500  625.133
  17.600  808.399
  17.700  826.344
  17.800 1160.976
  17.900 1406.264
  18.000 1446.496
  18.100 1278.038
  18.200  895.058
  18.300  878.137
  18.400  629.920
  18.500  634.405
  18.600  716.478
  18.700  842.571
  18.800  768.757
  18.900  762.592
  19.000  704.969
  19.100  797.989
  19.200  661.557
  19.300  771.890
  19.400  841.832
  19.500  818.183
  19.600  861.941
  19.700 1276.617
  19.800 1602.862
  19.900 2223.286
  20.000 2700.599
  20.100 2420.131
  20.200 1425.492
  20.300 1118.709
  20.400 1067.760
  20.500  886.276
  20.600  877.459
  20.700 1214.156
  20.800 1300.787
  20.900 1119.398
  21.000  798.118
  21.100  866.803
  21.200  752.348
  21.300  686.109
  21.400  891.138
  21.500  876.367
  21.600  929.491
  21.700  997.558
  21.800 1042.656
  21.900  907.520
  22.000  968.338
  22.100  806.002
  22.200  886.401
  22.300  875.596
  22.400  810.002
  22.500  921.954
  22.600 1041.843
  22.700  828.966
  22.800 1131.204
  22.900 1138.853
  23.000 1551.617
  23.100 1487.242
  23.200 1331.738
  23.300  931.498
  23.400  994.367
  23.500  954.394
  23.600  964.846
  23.700 1030.168
  23.800 1097.125
  23.900 1534.817
  24.000 1534.152
  24.100 1509.775
  24.200 1361.912
  24.300 1092.316
  24.400 1006.550
  24.500  813.273
  24.600  907.305
  24.700  737.197
  24.800  810.956
  24.900  847.824
  25.000 1001.354
  25.100  960.394
  25.200 1192.708
  25.300 1055.753
  25.400 1107.550
  25.500 1541.471
  25.600 1817.629
  25.700 1565.034
  25.800 1261.085
  25.900 1047.812
  26.000  787.465
  26.100  870.897
  26.200  753.441
  26.300  853.541
  26.400  859.977
  26.500 1048.752
  26.600 1457.113
  26.700 1872.781
  26.800 2371.346
  26.900 2332.560
  27.000 1821.686
  27.100 1245.402
  27.200 1003.557
  27.300 1086.603
  27.400  784.365
  27.500  835.381
  27.600  930.822
  27.700  921.898
  27.800 1049.662
  27.900 1486.509
  28.000 1739.952
  28.100 1491.896
  28.200 1214.030
  28.300  969.193
  28.400  816.341
  28.500  805.034
  28.600  941.456
  28.700 1022.367
  28.800  880.898
  28.900  844.510
  29.000  922.863
  29.100  830.384
  29.200  707.810
  29.300  724.681
  29.400  712.101
  29.500  731.867
  29.600  899.241
  29.700  787.068
  29.800  997.659
  29.900 1413.366
  30.000 1542.244
  30.100 1429.445
  30.200 1132.539
  30.300  920.340
  30.400  828.477
  30.500  680.347
  30.600  746.888
  30.700  613.612
  30.800  600.004
  30.900  675.534
  31.000  842.815
  31.100  860.505
  31.200 1229.283
  31.300 1507.204
  31.400 1593.339
  31.500 1402.749
  31.600 1450.498
  31.700 1325.861
  31.800 1250.669
  31.900 1108.842
  32.000  924.341
  32.100 1224.118
  32.200 1223.174
  32.300 1039.250
  32.400  905.821
  32.500  658.607
  32.600  679.322
  32.700  714.146
  32.800  805.505
  32.900  579.335
  33.000  750.326
  33.100  803.807
  33.200  633.601
  33.300  707.890
  33.400  775.694
  33.500  608.893
  33.600  726.068
  33.700  667.147
  33.800  659.531
  33.900  596.503
  34.000  779.811
  34.100  831.116
  34.200  884.161
  34.300  623.729
  34.400  680.668
  34.500  829.612
  34.600 1035.260
  34.700 1459.157
  34.800 1694.365
  34.900 1675.988
  35.000 2128.108
  35.100 2685.166
  35.200 2775.972
  35.300 2202.233
  35.400 1493.858
  35.500  896.254
  35.600  812.065
  35.700  825.904
  35.800  815.116
  35.900  850.941
  36.000  815.961
  36.100  884.656
  36.200  953.651
  36.300  934.477
  36.400  768.526
  36.500  906.504
  36.600 1193.408
  36.700 1061.892
  36.800  917.359
  36.900  863.666
  37.000  981.900
  37.100  750.200
  37.200  811.845
  37.300  831.414
  37.400  721.157
  37.500  876.472
  37.600 1036.340
  37.700 1017.706
  37.800 1114.781
  37.900 1292.397
  38.000 1125.992
  38.100  963.410
  38.200  839.204
  38.300  831.543
  38.400  802.369
  38.500  723.465
  38.600  533.141
  38.700  596.538
  38.800  728.449
  38.900  509.777
  39.000  688.027
  39.100  641.858
  39.200  747.833
  39.300  542.318
  39.400  646.592
  39.500  554.963
  39.600  719.553
  39.700  640.806
  39.800  532.893
  39.900  767.604
  40.000  595.925
  40.100  826.854
  40.200  851.389
  40.300 1006.058
  40.400  901.559
  40.500  880.327
  40.600  796.741
  40.700  759.574
  40.800  790.742
  40.900  967.136
  41.000  859.487
  41.100  794.617
  41.200  671.704
  41.300  722.354
  41.400  776.304
  41.500  870.946
  41.600  767.102
  41.700  735.006
  41.800  759.446
  41.900  750.793
  42.000  784.017
  42.100  834.560
  42.200  841.928
  42.300 1066.518
  42.400 1002.796
  42.500 1132.819
  42.600 1053.038
  42.700  953.502
  42.800  849.027
  42.900  727.296
  43.000  544.131
  43.100  656.771
  43.200  448.753
  43.300  453.178
  43.400  496.153
  43.500  520.476
  43.600  498.439
  43.700  458.375
  43.800  478.478
  43.900  687.332
  44.000  499.132