Folder: Linux_class/xrd_output/random_files (part 10)

File: 2M1-std-36.TXT
Sample
Comments
Filename	C:\WINDMAX\DATA\USERS\GEO\GEO_ER~1\Pyrenees\BULKMA~1\2M1-std2.raw
Goniometer	Ultima IV In-plane
Attachment	Auto sample changer (10 samples)
ScanningMode	2Theta/Theta
ScanningType	Continuos Scanning
X-Ray	40kV/44mA
DivSlit	2/3deg.
DivH.L.Slit	10mm
SctSlit	2/3deg.
RecSlit	0.3mm
Start	16
Stop	44
Step	0.02
Speed	0.3
Offset	0
  16.000  672.127
  16.100  606.278
  16.200  800.447
  16.300  590.861
  16.400  504.184
  16.500  758.176
  16.600  646.911
  16.700  656.399
  16.800  552.658
  16.900  615.326
  17.000  684.573
  17.100  671.862
  17.200  758.230
  17.300  601.968
  17.400  617.288
  17.500  734.241
  17.600  899.020
  17.700  795.671
  17.800 1012.478
  17.900 1403.680
  18.000 1373.547
  18.100 1238.539
  18.200  870.373
  18.300  719.430
  18.400  842.900
  18.500  720.929
  18.600  646.463
  18.700  637.441
  18.800  835.361
  18.900  606.102
  19.000  723.723
  19.100  702.959
  19.200  761.412
  19.300  651.824
  19.400  852.034
  19.500  829.198
  19.600  911.032
  19.700 1070.177
  19.800 1388.750
  19.900 2226.575
  20.000 2623.851
  20.100 2337.393
  20.200 1627.834
  20.300 1201.063
  20.400 1101.193
  20.500  970.188
  20.600  958.826
  20.700  991.563
  20.800 1093.365
  20.900 1022.613
  21.000 1007.194
  21.100  779.749
  21.200  806.962
  21.300  876.346
  21.400  900.141
  21.500  880.581
  21.600 1096.284
  21.700 1172.313
  21.800  984.227
  21.900 1055.721
  22.000  925.594
  22.100  850.342
  22.200  805.668
  22.300  950.553
  22.400  865.325
  22.500  874.006
  22.600  978.241
  22.700  885.435
  22.800 1121.685
  22.900 1371.335
  23.000 1452.448
  23.100 1734.204
  23.200 1346.362
  23.300 1125.349
  23.400  779.973
  23.500  823.541
  23.600 1027.673
  23.700 1021.506
  23.800 1165.028
  23.900 1376.941
  24.000 1660.074
  24.100 1360.285
  24.200 1423.256
  24.300 1020.981
  24.400  926.991
  24.500  728.581
  24.600  875.057
  24.700  834.205
  24.800  742.487
  24.900  788.243
  25.000  848.766
  25.100  929.825
  25.200 1023.761
  25.300 1185.612
  25.400 1250.574
  25.500 1406.424
  25.600 1771.477
  25.700 1615.916
  25.800 1352.370
  25.900 1066.640
  26.000  799.503
  26.100  757.038
  26.200  925.665
  26.300  935.162
  26.400  860.467
  26.500 1246.709
  26.600 1510.184
  26.700 1890.661
  26.800 2136.880
  26.900 2276.817
  27.000 1983.415
  27.100 1407.405
  27.200 1001.538
  27.300  862.694
  27.400  836.784
  27.500  852.573
  27.600  961.900
  27.700 1143.726
  27.800 1074.680
  27.900 1558.808
  28.000 1669.717
  28.100 1591.592
  28.200 1354.205
  28.300  950.373
  28.400  976.414
  28.500  851.626
  28.600  882.033
  28.700  843.932
  28.800  822.113
  28.900 1008.900
  29.000  931.957
  29.100  782.527
  29.200  819.858
  29.300  773.935
  29.400  704.006
  29.500  736.697
  29.600  772.669
  29.700  840.395
  29.800 1052.802
  29.900 1326.418
  30.000 1512.837
  30.100 1535.521
  30.200 1097.772
  30.300  851.269
  30.400  673.371
  30.500  651.967
  30.600  830.926
  30.700  754.493
  30.800  697.873
  30.900  721.034
  31.000  749.563
  31.100  833.783
  31.200 1261.636
  31.300 1302.270
  31.400 1598.077
  31.500 1528.358
  31.600 1563.052
  31.700 1466.968
  31.800 1346.397
  31.900 1074.494
  32.000 1161.680
  32.100  990.228
  32.200 1276.795
  32.300 1164.994
  32.400  837.889
  32.500  654.733
  32.600  632.021
  32.700  756.844
  32.800  781.536
  32.900  805.320
  33.000  673.487
  33.100  702.599
  33.200  760.763
  33.300  742.464
  33.400  665.582
  33.500  624.759
  33.600  519.517
  33.700  697.998
  33.800  738.125
  33.900  595.573
  34.000  791.612
  34.100  827.071
  34.200  899.504
  34.300  705.161
  34.400  718.213
  34.500  877.148
  34.600 1147.015
  34.700 1585.286
  34.800 1603.574
  34.900 1806.134
  35.000 2113.946
  35.100 2712.475
  35.200 2688.116
  35.300 2104.599
  35.400 1290.738
  35.500 1065.536
  35.600  753.473
  35.700  927.132
  35.800  876.654
  35.900  752.262
  36.000  761.936
  36.100  954.378
  36.200  790.623
  36.300  714.596
  36.400  753.135
  36.500  943.129
  36.600 1098.708
  36.700  967.862
  36.800 1070.783
  36.900  863.785
  37.000  897.950
  37.100  678.898
  37.200  756.388
  37.300  658.194
  37.400  736.970
  37.500  820.205
  37.600  987.773
  37.700 1096.903
  37.800 1179.798
  37.900 1260.697
  38.000 1161.034
  38.100 1108.155
  38.200  955.890
  38.300  718.812
  38.400  801.005
  38.500  669.670
  38.600  625.334
  38.700  679.507
  38.800  556.684
  38.900  609.998
  39.000  581.221
  39.100  667.719
  39.200  624.027
  39.300  706.442
  39.400  589.059
  39.500  715.234
  39.600  715.254
  39.700  654.680
  39.800  554.832
  39.900  583.209
  40.000  543.677
  40.100  725.825
  40.200  730.626
  40.300  877.079
  40.400  807.332
  40.500  888.032
  40.600  883.969
  40.700  652.722
  40.800  922.894
  40.900  810.140
  41.000  955.092
  41.100  884.970
  41.200  910.070
  41.300  698.681
  41.400  916.100
  41.500  785.428
  41.600  842.965
  41.700  670.402
  41.800  758.083
  41.900  701.777
  42.000  644.557
  42.100  814.293
  42.200  925.618
  42.300  857.769
  42.400  896.329
  42.500 1080.190
  42.600  996.146
  42.700 1072.239
  42.800  867.247
  42.900  732.839
  43.000  564.592
  43.100  574.805
  43.200  517.998
  43.300  439.375
  43.400  418.690
  43.500  466.125
  43.600  523.743
  43.700  549.749
  43.800  596.439
  43.900  490.108
  44.000  623.380

File: 2M1-std-37.TXT
Sample
Comments
Filename	C:\WINDMAX\DATA\USERS\GEO\GEO_ER~1\Pyrenees\BULKMA~1\2M1-std2.raw
Goniometer	Ultima IV In-plane
Attachment	Auto sample changer (10 samples)
ScanningMode	2Theta/Theta
ScanningType	Continuos Scanning
X-Ray	40kV/44mA
DivSlit	2/3deg.
DivH.L.Slit	10mm
SctSlit	2/3deg.
RecSlit	0.3mm
Start	16
Stop	44
Step	0.02
Speed	0.3
Offset	0
  16.000  613.261
  16.100  626.931
  16.200  579.592
  16.300  639.396
  16.400  546.590
  16.500  620.075
  16.600  659.110
  16.700  564.340
  16.800  650.106
  16.900  679.442
  17.000  770.252
  17.100  620.090
  17.200  540.214
  17.300  526.738
  17.400  630.062
  17.500  803.102
  17.600  877.737
  17.700  963.985
  17.800 1143.641
  17.900 1229.944
  18.000 1276.030
  18.100 1270.368
  18.200 1035.997
  18.300  840.061
  18.400  745.317
  18.500  803.773
  18.600  888.284
  18.700  795.402
  18.800  792.667
  18.900  822.349
  19.000  743.432
  19.100  791.464
  19.200  751.518
  19.300  654.404
  19.400  732.226
  19.500  688.461
  19.600  935.439
  19.700 1057.318
  19.800 1637.258
  19.900 2253.494
  20.000 2705.267
  20.100 2290.342
  20.200 1424.579
  20.300 1184.805
  20.400 1039.282
  20.500  894.494
  20.600  917.060
  20.700 1103.970
  20.800 1214.103
  20.900 1163.744
  21.000  889.321
  21.100  800.128
  21.200  812.627
  21.300  708.889
  21.400  849.239
  21.500  808.834
  21.600 1086.857
  21.700 1148.213
  21.800 1075.141
  21.900  856.883
  22.000  975.839
  22.100  868.352
  22.200  837.318
  22.300  728.368
  22.400  883.837
  22.500  830.389
  22.600  823.371
  22.700  991.158
  22.800  921.893
  22.900 1305.773
  23.000 1468.114
  23.100 1658.982
  23.200 1433.480
  23.300  906.757
  23.400  999.489
  23.500  841.666
  23.600  844.309
  23.700 1122.038
  23.800 1081.044
  23.900 1491.530
  24.000 1638.825
  24.100 1383.858
  24.200 1371.127
  24.300 1200.573
  24.400  956.887
  24.500  849.053
  24.600  781.933
  24.700  750.830
  24.800  728.768
  24.900  910.286
  25.000 1030.365
  25.100 1058.961
  25.200 1012.894
  25.300 1138.759
  25.400 1295.952
  25.500 1339.764
  25.600 1620.306
  25.700 1549.541
  25.800 1362.856
  25.900 1061.710
  26.000  968.389
  26.100  895.335
  26.200  771.499
  26.300  866.889
  26.400 1103.763
  26.500 1113.073
  26.600 1356.467
  26.700 1743.866
  26.800 2228.248
  26.900 2386.777
  27.000 1751.057
  27.100 1470.207
  27.200 1189.596
  27.300 1055.928
  27.400 1009.311
  27.500  800.030
  27.600  946.443
  27.700  940.849
  27.800 1242.785
  27.900 1369.846
  28.000 1777.121
  28.100 1544.852
  28.200 1236.462
  28.300 1168.273
  28.400  919.720
  28.500  787.483
  28.600  937.150
  28.700  903.515
  28.800 1012.225
  28.900 1009.068
  29.000  761.519
  29.100  921.171
  29.200  790.879
  29.300  662.310
  29.400  784.398
  29.500  858.610
  29.600  776.387
  29.700  890.259
  29.800 1123.339
  29.900 1286.736
  30.000 1457.374
  30.100 1327.392
  30.200 1030.975
  30.300  870.376
  30.400  676.858
  30.500  792.355
  30.600  804.439
  30.700  780.715
  30.800  703.181
  30.900  683.177
  31.000  952.561
  31.100 1084.507
  31.200 1269.099
  31.300 1422.071
  31.400 1472.218
  31.500 1516.555
  31.600 1506.379
  31.700 1521.576
  31.800 1359.539
  31.900 1252.355
  32.000 1086.618
  32.100 1083.791
  32.200 1196.111
  32.300 1023.681
  32.400  724.905
  32.500  674.311
  32.600  686.299
  32.700  622.880
  32.800  814.315
  32.900  571.275
  33.000  777.205
  33.100  691.398
  33.200  755.933
  33.300  667.184
  33.400  570.083
  33.500  616.292
  33.600  510.643
  33.700  750.941
  33.800  578.600
  33.900  707.131
  34.000  752.428
  34.100  664.318
  34.200  788.839
  34.300  599.266
  34.400  815.030
  34.500  922.250
  34.600 1274.424
  34.700 1602.867
  34.800 1760.860
  34.900 1822.460
  35.000 2107.748
  35.100 2614.459
  35.200 2821.438
  35.300 2065.801
  35.400 1368.934
  35.500 1014.157
  35.600  865.498
  35.700  878.831
  35.800  920.808
  35.900  795.682
  36.000  794.396
  36.100  806.619
  36.200  955.979
  36.300  824.702
  36.400  782.490
  36.500 1046.021
  36.600 1138.484
  36.700 1101.528
  36.800  990.295
  36.900 1022.856
  37.000  901.004
  37.100  812.769
  37.200  663.368
  37.300  759.914
  37.400  880.481
  37.500  923.420
  37.600  812.129
  37.700 1141.984
  37.800 1029.188
  37.900 1143.652
  38.000 1035.604
  38.100 1091.858
  38.200  838.196
  38.300  785.765
  38.400  796.956
  38.500  568.742
  38.600  525.778
  38.700  720.485
  38.800  630.672
  38.900  593.360
  39.000  523.789
  39.100  567.589
  39.200  618.061
  39.300  576.934
  39.400  699.510
  39.500  717.794
  39.600  616.544
  39.700  695.450
  39.800  565.323
  39.900  577.121
  40.000  640.839
  40.100  670.173
  40.200  776.058
  40.300  933.945
  40.400  933.796
  40.500  938.013
  40.600  836.426
  40.700  797.893
  40.800  918.457
  40.900  836.264
  41.000  949.444
  41.100  755.972
  41.200  919.672
  41.300  761.391
  41.400  810.379
  41.500  759.985
  41.600  628.368
  41.700  818.124
  41.800  601.014
  41.900  827.221
  42.000  690.073
  42.100  897.134
  42.200  949.036
  42.300  922.231
  42.400  921.868
  42.500 1064.603
  42.600  913.455
  42.700 1011.308
  42.800  772.860
  42.900  669.272
  43.000  538.441
  43.100  617.480
  43.200  599.063
  43.300  532.851
  43.400  557.385
  43.500  482.533
  43.600  472.189
  43.700  614.319
  43.800  552.410
  43.900  717.161
  44.000  591.481

File: 2M1-std-38.TXT
Sample
Comments
Filename	C:\WINDMAX\DATA\USERS\GEO\GEO_ER~1\Pyrenees\BULKMA~1\2M1-std2.raw
Goniometer	Ultima IV In-plane
Attachment	Auto sample changer (10 samples)
ScanningMode	2Theta/Theta
ScanningType	Continuos Scanning
X-Ray	40kV/44mA
DivSlit	2/3deg.
DivH.L.Slit	10mm
SctSlit	2/3deg.
RecSlit	0.3mm
Start	16
Stop	44
Step	0.02
Speed	0.3
Offset	0
  16.000  668.358
  16.100  801.512
  16.200  766.693
  16.300  586.116
  16.400  730.163
  16.500  687.776
  16.600  555.545
  16.700  722.477
  16.800  770.307
  16.900  598.891
  17.000  562.308
  17.100  653.690
  17.200  661.397
  17.300  663.552
  17.400  754.644
  17.500  658.705
  17.600  790.017
  17.700  954.164
  17.800 1119.031
  17.900 1381.252
  18.000 1198.959
  18.100 1128.446
  18.200  860.519
  18.300  741.546
  18.400  699.450
  18.500  716.120
  18.600  656.406
  18.700  757.755
  18.800  774.682
  18.900  775.006
  19.000  722.141
  19.100  680.499
  19.200  722.071
  19.300  663.963
  19.400  893.801
  19.500  780.997
  19.600  965.236
  19.700 1278.172
  19.800 1408.605
  19.900 2187.037
  20.000 2603.845
  20.100 2460.642
  20.200 1485.704
  20.300 1281.714
  20.400 1120.569
  20.500  956.699
  20.600  976.072
  20.700 1172.707
  20.800 1143.048
  20.900  966.289
  21.000  919.513
  21.100  731.119
  21.200  816.300
  21.300  926.919
  21.400  829.741
  21.500  817.175
  21.600  930.329
  21.700 1195.298
  21.800 1128.680
  21.900 1013.290
  22.000  938.069
  22.100  923.730
  22.200  786.505
  22.300  745.098
  22.400  726.472
  22.500  950.439
  22.600  927.267
  22.700  927.796
  22.800  972.831
  22.900 1339.591
  23.000 1563.199
  23.100 1648.324
  23.200 1433.964
  23.300 1120.721
  23.400  824.917
  23.500  846.885
  23.600  998.334
  23.700  914.755
  23.800 1150.257
  23.900 1432.517
  24.000 1459.991
  24.100 1554.886
  24.200 1396.592
  24.300 1176.391
  24.400  841.362
  24.500  786.582
  24.600  689.458
  24.700  937.491
  24.800  894.731
  24.900  953.238
  25.000 1031.728
  25.100  883.143
  25.200 1171.330
  25.300 1084.626
  25.400 1087.558
  25.500 1329.541
  25.600 1810.178
  25.700 1520.529
  25.800 1203.864
  25.900  992.649
  26.000  786.642
  26.100  871.001
  26.200  859.156
  26.300  943.619
  26.400 1061.925
  26.500 1206.645
  26.600 1384.751
  26.700 1828.299
  26.800 2144.539
  26.900 2271.738
  27.000 1909.605
  27.100 1427.008
  27.200  965.651
  27.300  873.069
  27.400  950.383
  27.500  996.497
  27.600 1054.888
  27.700  993.295
  27.800 1037.965
  27.900 1356.926
  28.000 1822.974
  28.100 1435.711
  28.200 1171.074
  28.300  989.187
  28.400  834.310
  28.500 1016.144
  28.600  825.504
  28.700  985.799
  28.800  788.084
  28.900  808.942
  29.000  758.528
  29.100  900.076
  29.200  832.531
  29.300  785.982
  29.400  804.282
  29.500  872.035
  29.600  676.435
  29.700  775.172
  29.800  964.616
  29.900 1447.798
  30.000 1663.864
  30.100 1355.547
  30.200 1046.931
  30.300  932.822
  30.400  801.765
  30.500  610.221
  30.600  792.433
  30.700  736.677
  30.800  762.396
  30.900  671.668
  31.000  819.382
  31.100 1024.039
  31.200 1180.596
  31.300 1472.395
  31.400 1506.649
  31.500 1343.399
  31.600 1461.940
  31.700 1546.898
  31.800 1390.055
  31.900 1118.572
  32.000  908.054
  32.100  982.330
  32.200 1183.266
  32.300  978.395
  32.400  854.459
  32.500  738.669
  32.600  619.963
  32.700  692.707
  32.800  743.496
  32.900  793.291
  33.000  750.437
  33.100  742.522
  33.200  804.937
  33.300  727.868
  33.400  578.320
  33.500  643.183
  33.600  559.934
  33.700  701.930
  33.800  690.737
  33.900  750.895
  34.000  618.199
  34.100  781.730
  34.200  769.498
  34.300  794.532
  34.400  900.486
  34.500  990.034
  34.600 1079.942
  34.700 1470.955
  34.800 1793.299
  34.900 1747.451
  35.000 2165.131
  35.100 2563.497
  35.200 2863.280
  35.300 2122.847
  35.400 1462.088
  35.500  942.092
  35.600  833.022
  35.700  885.374
  35.800  743.921
  35.900  713.066
  36.000  959.564
  36.100  953.855
  36.200  935.141
  36.300  694.627
  36.400  936.458
  36.500  872.391
  36.600 1077.795
  36.700 1029.358
  36.800  963.878
  36.900  956.378
  37.000  823.142
  37.100  680.372
  37.200  667.795
  37.300  733.068
  37.400  768.792
  37.500  793.032
  37.600  853.763
  37.700  987.710
  37.800 1076.561
  37.900 1329.294
  38.000 1274.869
  38.100  988.601
  38.200  940.108
  38.300  948.454
  38.400  771.451
  38.500  800.909
  38.600  628.817
  38.700  723.280
  38.800  541.816
  38.900  609.128
  39.000  504.541
  39.100  514.963
  39.200  524.472
  39.300  500.351
  39.400  524.547
  39.500  661.986
  39.600  697.830
  39.700  630.566
  39.800  665.688
  39.900  773.753
  40.000  582.664
  40.100  861.974
  40.200  855.744
  40.300  985.099
  40.400  944.596
  40.500  875.741
  40.600  851.182
  40.700  638.084
  40.800  799.798
  40.900  790.376
  41.000  873.248
  41.100  843.487
  41.200  794.960
  41.300  842.361
  41.400  772.554
  41.500  810.453
  41.600  752.359
  41.700  832.182
  41.800  652.368
  41.900  672.780
  42.000  895.066
  42.100  753.286
  42.200  874.316
  42.300 1012.438
  42.400  938.395
  42.500 1110.192
  42.600 1040.084
  42.700 1036.063
  42.800  886.830
  42.900  574.663
  43.000  704.653
  43.100  534.512
  43.200  510.597
  43.300  513.874
  43.400  645.203
  43.500  477.366
  43.600  501.652
  43.700  550.949
  43.800  501.031
  43.900  711.656
  44.000  483.807

File: 2M1-std-39.TXT
Sample
Comments
Filename	C:\WINDMAX\DATA\USERS\GEO\GEO_ER~1\Pyrenees\BULKMA~1\2M1-std2.raw
Goniometer	Ultima IV In-plane
Attachment	Auto sample changer (10 samples)
ScanningMode	2Theta/Theta
ScanningType	Continuos Scanning
X-Ray	40kV/44mA
DivSlit	2/3deg.
DivH.L.Slit	10mm
SctSlit	2/3deg.
RecSlit	0.3mm
Start	16
Stop	44
Step	0.02
Speed	0.3
Offset	0
  16.000  759.933
  16.100  701.511
  16.200  794.464
  16.300  575.686
  16.400  676.525
  16.500  529.209
  16.600  532.726
  16.700  510.163
  16.800  715.479
  16.900  588.638
  17.000  546.231
  17.100  526.162
  17.200  619.773
  17.300  606.528
  17.400  767.757
  17.500  837.324
  17.600  821.218
  17.700  993.775
  17.800 1154.504
  17.900 1272.626
  18.000 1197.865
  18.100 1109.088
  18.200  843.454
  18.300  656.457
  18.400  770.857
  18.500  709.708
  18.600  659.694
  18.700  823.850
  18.800  752.303
  18.900  806.981
  19.000  622.374
  19.100  737.419
  19.200  770.382
  19.300  812.957
  19.400  872.899
  19.500  687.836
  19.600  882.146
  19.700 1153.907
  19.800 1427.625
  19.900 2215.764
  20.000 2586.397
  20.100 2222.002
  20.200 1523.582
  20.300 1152.034
  20.400 1122.417
  20.500  997.534
  20.600  883.146
  20.700 1214.147
  20.800 1324.134
  20.900 1005.269
  21.000  973.140
  21.100  822.956
  21.200  915.440
  21.300  796.854
  21.400  738.812
  21.500  964.658
  21.600 1013.226
  21.700 1061.251
  21.800  995.342
  21.900  970.385
  22.000  816.644
  22.100  819.855
  22.200  729.117
  22.300  871.818
  22.400  922.560
  22.500  883.133
  22.600  909.556
  22.700  956.551
  22.800  970.283
  22.900 1273.769
  23.000 1430.396
  23.100 1579.414
  23.200 1302.003
  23.300 1048.705
  23.400  959.249
  23.500  856.868
  23.600  998.037
  23.700  963.804
  23.800 1274.337
  23.900 1457.327
  24.000 1556.095
  24.100 1493.760
  24.200 1426.177
  24.300 1131.753
  24.400 1053.353
  24.500  855.510
  24.600  898.551
  24.700  860.738
  24.800  729.788
  24.900  846.613
  25.000  992.498
  25.100 1084.198
  25.200  987.645
  25.300 1201.994
  25.400 1268.638
  25.500 1552.119
  25.600 1633.796
  25.700 1633.786
  25.800 1284.749
  25.900 1146.244
  26.000  978.118
  26.100  774.234
  26.200  848.342
  26.300  957.839
  26.400 1045.384
  26.500 1212.889
  26.600 1367.597
  26.700 1718.285
  26.800 2327.732
  26.900 2327.933
  27.000 1976.963
  27.100 1304.024
  27.200 1195.290
  27.300  973.287
  27.400  857.554
  27.500  961.763
  27.600 1041.549
  27.700  895.487
  27.800 1105.254
  27.900 1435.227
  28.000 1714.820
  28.100 1593.711
  28.200 1149.432
  28.300 1070.649
  28.400  972.570
  28.500  813.467
  28.600  749.273
  28.700 1015.952
  28.800  991.849
  28.900  945.079
  29.000  729.267
  29.100  930.838
  29.200  842.800
  29.300  699.256
  29.400  862.186
  29.500  749.506
  29.600  837.021
  29.700  782.301
  29.800 1074.912
  29.900 1246.319
  30.000 1550.165
  30.100 1295.864
  30.200 1041.938
  30.300  803.755
  30.400  850.390
  30.500  813.540
  30.600  649.992
  30.700  750.766
  30.800  618.157
  30.900  643.301
  31.000  909.975
  31.100 1068.091
  31.200 1257.050
  31.300 1493.478
  31.400 1689.365
  31.500 1390.173
  31.600 1573.913
  31.700 1392.388
  31.800 1344.957
  31.900 1237.953
  32.000 1122.935
  32.100 1217.980
  32.200 1274.431
  32.300 1072.602
  32.400  725.034
  32.500  686.080
  32.600  750.102
  32.700  640.302
  32.800  750.850
  32.900  730.958
  33.000  769.323
  33.100  617.183
  33.200  588.309
  33.300  641.761
  33.400  617.861
  33.500  519.893
  33.600  575.116
  33.700  535.077
  33.800  560.247
  33.900  678.806
  34.000  809.705
  34.100  828.974
  34.200  673.853
  34.300  763.522
  34.400  719.486
  34.500  967.728
  34.600 1049.703
  34.700 1624.452
  34.800 1807.439
  34.900 1797.209
  35.000 1964.432
  35.100 2681.031
  35.200 2873.616
  35.300 2104.945
  35.400 1500.355
  35.500  920.409
  35.600  770.401
  35.700  712.259
  35.800  839.930
  35.900  884.224
  36.000  864.698
  36.100  838.180
  36.200  824.159
  36.300  944.455
  36.400  765.243
  36.500  904.775
  36.600 1083.425
  36.700 1037.781
  36.800 1110.031
  36.900  965.488
  37.000  881.562
  37.100  907.591
  37.200  852.505
  37.300  782.652
  37.400  696.382
  37.500  970.466
  37.600  941.234
  37.700 1100.168
  37.800 1228.306
  37.900 1160.914
  38.000 1286.198
  38.100  964.073
  38.200  800.711
  38.300  843.505
  38.400  801.336
  38.500  743.466
  38.600  621.427
  38.700  685.022
  38.800  657.402
  38.900  625.448
  39.000  506.264
  39.100  592.508
  39.200  656.988
  39.300  733.859
  39.400  528.212
  39.500  612.465
  39.600  604.424
  39.700  538.715
  39.800  665.383
  39.900  659.805
  40.000  544.174
  40.100  867.518
  40.200  805.620
  40.300  793.750
  40.400  867.404
  40.500  801.753
  40.600  932.468
  40.700  834.884
  40.800  783.188
  40.900  971.329
  41.000  900.922
  41.100  758.797
  41.200  906.470
  41.300  748.390
  41.400  677.594
  41.500  866.745
  41.600  672.659
  41.700  605.604
  41.800  583.305
  41.900  726.128
  42.000  669.923
  42.100  890.978
  42.200  870.328
  42.300  940.960
  42.400 1089.891
  42.500 1017.060
  42.600  972.753
  42.700  985.873
  42.800  862.914
  42.900  586.585
  43.000  631.012
  43.100  587.910
  43.200  577.458
  43.300  514.025
  43.400  476.816
  43.500  577.509
  43.600  622.416
  43.700  529.751
  43.800  540.250
  43.900  499.818
  44.000  707.806