Folder: Linux_class/xrd_output/random_files (part 7)

File: 2M1-std-24.TXT
Sample
Comments
Filename	C:\WINDMAX\DATA\USERS\GEO\GEO_ER~1\Pyrenees\BULKMA~1\2M1-std2.raw
Goniometer	Ultima IV In-plane
Attachment	Auto sample changer (10 samples)
ScanningMode	2Theta/Theta
ScanningType	Continuos Scanning
X-Ray	40kV/44mA
DivSlit	2/3deg.
DivH.L.Slit	10mm
SctSlit	2/3deg.
RecSlit	0.3mm
Start	16
Stop	44
Step	0.02
Speed	0.3
Offset	0
  16.000  708.155
  16.100  827.253
  16.200  568.800
  16.300  525.983
  16.400  619.372
  16.500  603.173
  16.600  623.860
  16.700  678.108
  16.800  559.821
  16.900  707.257
  17.000  676.068
  17.100  574.456
  17.200  505.865
  17.300  710.436
  17.400  712.512
  17.500  690.226
  17.600  859.792
  17.700  923.099
  17.800 1126.585
  17.900 1264.469
  18.000 1223.551
  18.100 1135.435
  18.200 1032.955
  18.300  719.193
  18.400  637.081
  18.500  794.898
  18.600  727.631
  18.700  717.441
  18.800  842.908
  18.900  609.903
  19.000  682.750
  19.100  703.548
  19.200  695.983
  19.300  853.763
  19.400  829.599
  19.500  911.312
  19.600  995.526
  19.700 1084.934
  19.800 1598.953
  19.900 2120.462
  20.000 2555.201
  20.100 2350.868
  20.200 1502.865
  20.300 1097.335
  20.400 1181.666
  20.500  937.393
  20.600 1113.869
  20.700 1099.390
  20.800 1243.238
  20.900 1135.002
  21.000 1008.486
  21.100  871.138
  21.200  865.140
  21.300  778.136
  21.400  836.422
  21.500 1013.454
  21.600 1059.251
  21.700 1105.991
  21.800  937.123
  21.900 1025.694
  22.000  911.423
  22.100  871.800
  22.200  859.242
  22.300  876.348
  22.400  884.808
  22.500  937.110
  22.600 1014.711
  22.700 1007.222
  22.800 1048.367
  22.900 1275.449
  23.000 1634.011
  23.100 1657.330
  23.200 1328.551
  23.300 1015.883
  23.400  752.424
  23.500  826.624
  23.600  851.987
  23.700 1089.623
  23.800 1130.420
  23.900 1458.681
  24.000 1445.953
  24.100 1350.658
  24.200 1221.783
  24.300 1092.838
  24.400 1079.872
  24.500  962.888
  24.600  889.066
  24.700  704.070
  24.800  917.550
  24.900  917.185
  25.000  837.816
  25.100  928.768
  25.200 1044.704
  25.300 1032.595
  25.400 1293.812
  25.500 1425.755
  25.600 1562.498
  25.700 1604.963
  25.800 1404.807
  25.900 1118.834
  26.000 1004.827
  26.100  810.920
  26.200  829.530
  26.300  998.124
  26.400 1045.458
  26.500 1147.678
  26.600 1344.287
  26.700 1946.828
  26.800 2189.071
  26.900 2307.071
  27.000 1789.016
  27.100 1263.396
  27.200 1165.977
  27.300  968.206
  27.400 1000.637
  27.500  869.295
  27.600  901.945
  27.700  976.611
  27.800 1205.177
  27.900 1552.951
  28.000 1831.110
  28.100 1613.817
  28.200 1319.618
  28.300 1114.165
  28.400  886.647
  28.500  775.437
  28.600  774.873
  28.700 1058.220
  28.800 1009.382
  28.900  900.899
  29.000  886.401
  29.100  817.165
  29.200  680.316
  29.300  737.730
  29.400  738.070
  29.500  661.439
  29.600  833.449
  29.700  781.974
  29.800 1155.120
  29.900 1354.537
  30.000 1609.141
  30.100 1309.595
  30.200 1134.412
  30.300  954.707
  30.400  882.765
  30.500  709.900
  30.600  814.558
  30.700  576.247
  30.800  843.590
  30.900  628.882
  31.000  928.997
  31.100  858.362
  31.200 1243.560
  31.300 1447.896
  31.400 1515.913
  31.500 1455.490
  31.600 1379.165
  31.700 1357.891
  31.800 1332.192
  31.900 1203.438
  32.000 1025.522
  32.100 1087.496
  32.200 1160.034
  32.300 1066.070
  32.400  854.137
  32.500  802.096
  32.600  875.440
  32.700  772.379
  32.800  815.656
  32.900  706.431
  33.000  607.106
  33.100  605.815
  33.200  800.957
  33.300  524.987
  33.400  608.870
  33.500  730.451
  33.600  530.202
  33.700  764.545
  33.800  631.456
  33.900  793.445
  34.000  767.277
  34.100  765.563
  34.200  847.789
  34.300  842.677
  34.400  779.079
  34.500  950.803
  34.600 1271.751
  34.700 1625.205
  34.800 1744.169
  34.900 1654.373
  35.000 2023.068
  35.100 2702.124
  35.200 2810.295
  35.300 2016.666
  35.400 1463.084
  35.500  983.621
  35.600 1004.858
  35.700  803.946
  35.800  846.068
  35.900  869.945
  36.000  902.925
  36.100  937.843
  36.200  869.813
  36.300  808.423
  36.400  823.541
  36.500 1096.451
  36.600  980.422
  36.700 1096.548
  36.800  920.033
  36.900  875.718
  37.000  822.914
  37.100  885.918
  37.200  831.362
  37.300  745.597
  37.400  920.547
  37.500  776.433
  37.600  852.734
  37.700 1150.362
  37.800 1100.633
  37.900 1176.275
  38.000 1196.224
  38.100  888.561
  38.200  957.011
  38.300  881.820
  38.400  663.922
  38.500  730.353
  38.600  531.815
  38.700  668.456
  38.800  710.387
  38.900  650.401
  39.000  609.434
  39.100  592.373
  39.200  688.967
  39.300  595.564
  39.400  718.211
  39.500  594.220
  39.600  501.164
  39.700  650.024
  39.800  752.490
  39.900  520.929
  40.000  795.482
  40.100  750.775
  40.200  747.550
  40.300  946.327
  40.400  879.436
  40.500  701.582
  40.600  727.506
  40.700  818.163
  40.800  699.097
  40.900  878.471
  41.000  782.134
  41.100  871.894
  41.200  860.263
  41.300  892.532
  41.400  804.874
  41.500  898.374
  41.600  673.109
  41.700  616.999
  41.800  595.965
  41.900  608.547
  42.000  759.908
  42.100  847.283
  42.200  892.261
  42.300  842.190
  42.400  862.085
  42.500 1129.080
  42.600  979.723
  42.700 1076.126
  42.800  691.355
  42.900  579.976
  43.000  705.742
  43.100  623.769
  43.200  579.026
  43.300  444.414
  43.400  512.691
  43.500  536.489
  43.600  561.287
  43.700  559.771
  43.800  490.348
  43.900  543.507
  44.000  505.808

File: 2M1-std-25.TXT
Sample
Comments
Filename	C:\WINDMAX\DATA\USERS\GEO\GEO_ER~1\Pyrenees\BULKMA~1\2M1-std2.raw
Goniometer	Ultima IV In-plane
Attachment	Auto sample changer (10 samples)
ScanningMode	2Theta/Theta
ScanningType	Continuos Scanning
X-Ray	40kV/44mA
DivSlit	2/3deg.
DivH.L.Slit	10mm
SctSlit	2/3deg.
RecSlit	0.3mm
Start	16
Stop	44
Step	0.02
Speed	0.3
Offset	0
  16.000  757.894
  16.100  786.836
  16.200  673.774
  16.300  567.388
  16.400  558.915
  16.500  585.627
  16.600  743.664
  16.700  533.021
  16.800  750.259
  16.900  524.574
  17.000  659.305
  17.100  584.418
  17.200  620.371
  17.300  748.093
  17.400  758.506
  17.500  684.661
  17.600  867.819
  17.700  848.164
  17.800 1164.510
  17.900 1408.049
  18.000 1286.105
  18.100 1138.365
  18.200  956.251
  18.300  632.939
  18.400  840.419
  18.500  853.659
  18.600  716.103
  18.700  664.290
  18.800  740.215
  18.900  781.430
  19.000  627.811
  19.100  782.953
  19.200  815.621
  19.300  697.744
  19.400  703.734
  19.500  764.026
  19.600  971.455
  19.700 1038.677
  19.800 1619.358
  19.900 2105.318
  20.000 2560.867
  20.100 2373.359
  20.200 1545.301
  20.300 1051.036
  20.400 1059.621
  20.500  992.499
  20.600 1012.608
  20.700 1073.011
  20.800 1257.292
  20.900 1103.632
  21.000 1022.297
  21.100  781.186
  21.200  911.692
  21.300  794.889
  21.400  821.207
  21.500  966.259
  21.600  980.944
  21.700 1231.638
  21.800  923.146
  21.900  889.931
  22.000  906.695
  22.100  772.460
  22.200  819.064
  22.300  749.530
  22.400  894.089
  22.500  929.522
  22.600  982.679
  22.700  830.370
  22.800  954.589
  22.900 1374.551
  23.000 1579.234
  23.100 1660.037
  23.200 1320.000
  23.300 1106.719
  23.400  866.852
  23.500  827.198
  23.600  848.753
  23.700  889.783
  23.800 1232.611
  23.900 1320.699
  24.000 1446.103
  24.100 1534.785
  24.200 1284.102
  24.300 1096.579
  24.400 1007.991
  24.500  821.552
  24.600  867.122
  24.700  797.675
  24.800  817.037
  24.900  788.342
  25.000  796.695
  25.100 1112.922
  25.200  997.683
  25.300 1209.733
  25.400 1070.196
  25.500 1565.318
  25.600 1721.150
  25.700 1529.390
  25.800 1328.117
  25.900 1103.475
  26.000  925.442
  26.100  946.839
  26.200  748.243
  26.300  923.890
  26.400 1100.804
  26.500 1180.110
  26.600 1518.700
  26.700 1919.185
  26.800 2226.934
  26.900 2331.460
  27.000 1776.948
  27.100 1481.929
  27.200 1105.317
  27.300  952.619
  27.400  877.096
  27.500  802.143
  27.600  913.581
  27.700  883.976
  27.800 1256.341
  27.900 1388.025
  28.000 1709.053
  28.100 1422.360
  28.200 1285.404
  28.300  962.605
  28.400  916.957
  28.500  914.508
  28.600  971.713
  28.700  884.507
  28.800  948.126
  28.900 1012.399
  29.000  743.428
  29.100  748.661
  29.200  668.179
  29.300  797.972
  29.400  849.081
  29.500  754.119
  29.600  758.549
  29.700  824.997
  29.800 1147.978
  29.900 1399.004
  30.000 1648.948
  30.100 1467.267
  30.200 1146.197
  30.300  950.525
  30.400  824.191
  30.500  852.837
  30.600  602.542
  30.700  813.112
  30.800  727.329
  30.900  720.542
  31.000  823.217
  31.100 1070.853
  31.200 1042.837
  31.300 1448.257
  31.400 1681.740
  31.500 1514.083
  31.600 1524.378
  31.700 1485.848
  31.800 1437.056
  31.900 1141.268
  32.000 1045.047
  32.100 1174.290
  32.200 1260.522
  32.300 1032.968
  32.400  749.572
  32.500  637.760
  32.600  628.710
  32.700  813.631
  32.800  692.640
  32.900  602.154
  33.000  655.262
  33.100  559.538
  33.200  791.250
  33.300  613.851
  33.400  613.787
  33.500  687.893
  33.600  493.811
  33.700  608.553
  33.800  795.687
  33.900  617.090
  34.000  700.778
  34.100  723.395
  34.200  882.244
  34.300  822.658
  34.400  833.250
  34.500  796.018
  34.600 1143.848
  34.700 1492.155
  34.800 1652.140
  34.900 1876.975
  35.000 2042.105
  35.100 2597.085
  35.200 2889.293
  35.300 2112.487
  35.400 1442.508
  35.500  927.625
  35.600  825.603
  35.700  815.008
  35.800  856.166
  35.900  860.710
  36.000  727.357
  36.100  862.914
  36.200  909.853
  36.300  704.121
  36.400  975.659
  36.500  971.973
  36.600 1164.200
  36.700 1124.334
  36.800 1033.327
  36.900  897.327
  37.000  932.103
  37.100  790.500
  37.200  870.584
  37.300  695.551
  37.400  825.512
  37.500  950.426
  37.600  862.693
  37.700  964.092
  37.800 1054.266
  37.900 1150.315
  38.000 1261.402
  38.100  892.488
  38.200  767.497
  38.300  744.813
  38.400  882.415
  38.500  647.667
  38.600  752.748
  38.700  665.844
  38.800  608.790
  38.900  490.606
  39.000  503.495
  39.100  555.826
  39.200  654.461
  39.300  555.601
  39.400  546.759
  39.500  499.813
  39.600  515.903
  39.700  712.143
  39.800  628.003
  39.900  580.490
  40.000  632.234
  40.100  689.920
  40.200  940.513
  40.300  957.946
  40.400  781.589
  40.500  861.631
  40.600  870.331
  40.700  684.244
  40.800  931.894
  40.900  791.082
  41.000  953.817
  41.100  959.896
  41.200  734.126
  41.300  673.362
  41.400  762.154
  41.500  798.463
  41.600  814.278
  41.700  817.970
  41.800  782.733
  41.900  788.864
  42.000  654.063
  42.100  821.214
  42.200  870.929
  42.300 1012.569
  42.400  983.256
  42.500 1022.608
  42.600 1137.181
  42.700  875.520
  42.800  768.304
  42.900  679.985
  43.000  609.350
  43.100  503.708
  43.200  686.481
  43.300  627.144
  43.400  594.885
  43.500  613.932
  43.600  474.192
  43.700  461.858
  43.800  528.637
  43.900  519.921
  44.000  650.820

File: 2M1-std-26.TXT
Sample
Comments
Filename	C:\WINDMAX\DATA\USERS\GEO\GEO_ER~1\Pyrenees\BULKMA~1\2M1-std2.raw
Goniometer	Ultima IV In-plane
Attachment	Auto sample changer (10 samples)
ScanningMode	2Theta/Theta
ScanningType	Continuos Scanning
X-Ray	40kV/44mA
DivSlit	2/3deg.
DivH.L.Slit	10mm
SctSlit	2/3deg.
RecSlit	0.3mm
Start	16
Stop	44
Step	0.02
Speed	0.3
Offset	0
  16.000  608.613
  16.100  753.379
  16.200  632.552
  16.300  686.222
  16.400  621.125
  16.500  695.588
  16.600  719.494
  16.700  608.178
  16.800  525.996
  16.900  553.953
  17.000  674.722
  17.100  581.388
  17.200  585.470
  17.300  668.764
  17.400  790.532
  17.500  808.624
  17.600  768.014
  17.700  921.334
  17.800 1146.162
  17.900 1232.338
  18.000 1417.075
  18.100 1170.972
  18.200 1059.203
  18.300  857.325
  18.400  847.084
  18.500  781.963
  18.600  767.821
  18.700  756.371
  18.800  729.314
  18.900  753.652
  19.000  736.063
  19.100  714.314
  19.200  676.577
  19.300  733.000
  19.400  737.727
  19.500  826.816
  19.600 1037.680
  19.700 1129.738
  19.800 1426.410
  19.900 2189.249
  20.000 2706.481
  20.100 2307.456
  20.200 1580.578
  20.300 1222.949
  20.400 1021.867
  20.500 1040.314
  20.600 1013.305
  20.700 1223.092
  20.800 1223.919
  20.900 1059.259
  21.000  889.288
  21.100  811.736
  21.200  772.460
  21.300  767.099
  21.400  862.704
  21.500 1042.277
  21.600  996.465
  21.700  985.691
  21.800 1032.900
  21.900  943.266
  22.000  890.734
  22.100  762.539
  22.200  834.966
  22.300  866.803
  22.400  871.242
  22.500  788.435
  22.600  880.288
  22.700  846.272
  22.800 1093.680
  22.900 1256.240
  23.000 1429.205
  23.100 1613.513
  23.200 1287.635
  23.300 1119.818
  23.400  919.030
  23.500  744.160
  23.600  919.392
  23.700  983.650
  23.800 1282.248
  23.900 1325.292
  24.000 1513.623
  24.100 1411.704
  24.200 1403.967
  24.300 1016.867
  24.400  884.867
  24.500  855.055
  24.600  923.143
  24.700  844.726
  24.800  825.667
  24.900  770.672
  25.000  832.147
  25.100 1025.177
  25.200 1193.740
  25.300 1176.043
  25.400 1291.964
  25.500 1472.897
  25.600 1739.340
  25.700 1629.581
  25.800 1282.732
  25.900 1092.037
  26.000  829.568
  26.100  790.193
  26.200  943.862
  26.300  842.629
  26.400 1027.758
  26.500 1081.416
  26.600 1430.029
  26.700 1725.583
  26.800 2205.197
  26.900 2235.299
  27.000 1805.555
  27.100 1248.520
  27.200  992.687
  27.300 1072.654
  27.400  892.379
  27.500  920.737
  27.600  842.571
  27.700 1001.807
  27.800 1059.889
  27.900 1534.181
  28.000 1716.171
  28.100 1622.511
  28.200 1311.710
  28.300  983.258
  28.400  864.313
  28.500  870.887
  28.600  843.683
  28.700  982.426
  28.800  882.151
  28.900 1001.103
  29.000  793.399
  29.100  784.544
  29.200  816.900
  29.300  834.077
  29.400  672.404
  29.500  822.273
  29.600  742.167
  29.700  886.548
  29.800 1083.701
  29.900 1409.166
  30.000 1674.465
  30.100 1346.935
  30.200 1149.594
  30.300  881.693
  30.400  718.584
  30.500  851.958
  30.600  747.589
  30.700  687.044
  30.800  716.834
  30.900  627.801
  31.000  906.102
  31.100  850.020
  31.200 1122.747
  31.300 1500.549
  31.400 1501.456
  31.500 1501.806
  31.600 1445.796
  31.700 1309.339
  31.800 1408.149
  31.900 1221.314
  32.000  954.905
  32.100 1199.205
  32.200 1132.845
  32.300  971.092
  32.400  786.696
  32.500  697.485
  32.600  671.893
  32.700  617.874
  32.800  807.554
  32.900  651.991
  33.000  646.323
  33.100  611.952
  33.200  638.626
  33.300  664.828
  33.400  696.062
  33.500  554.277
  33.600  517.983
  33.700  733.413
  33.800  711.853
  33.900  759.643
  34.000  619.965
  34.100  773.175
  34.200  875.426
  34.300  835.143
  34.400  775.985
  34.500  939.209
  34.600 1097.866
  34.700 1630.039
  34.800 1712.181
  34.900 1725.222
  35.000 2090.598
  35.100 2734.340
  35.200 2797.082
  35.300 2103.552
  35.400 1330.288
  35.500 1121.464
  35.600  763.326
  35.700  748.888
  35.800  898.903
  35.900  952.754
  36.000  952.372
  36.100  771.585
  36.200  952.544
  36.300  838.618
  36.400  793.292
  36.500  999.408
  36.600 1071.124
  36.700 1079.698
  36.800  909.011
  36.900 1066.694
  37.000  906.037
  37.100  810.790
  37.200  705.749
  37.300  742.720
  37.400  924.789
  37.500  924.120
  37.600  834.388
  37.700  908.810
  37.800 1218.597
  37.900 1091.259
  38.000 1137.058
  38.100  951.670
  38.200  997.714
  38.300  715.325
  38.400  686.817
  38.500  796.112
  38.600  562.985
  38.700  552.684
  38.800  668.896
  38.900  672.397
  39.000  625.184
  39.100  613.838
  39.200  733.939
  39.300  666.981
  39.400  542.613
  39.500  632.188
  39.600  585.470
  39.700  722.161
  39.800  596.974
  39.900  612.496
  40.000  785.446
  40.100  709.830
  40.200  956.859
  40.300  849.994
  40.400  952.166
  40.500  913.794
  40.600  832.131
  40.700  732.305
  40.800  705.175
  40.900  808.809
  41.000  797.159
  41.100  900.977
  41.200  790.834
  41.300  793.051
  41.400  917.867
  41.500  889.856
  41.600  749.801
  41.700  829.054
  41.800  605.438
  41.900  698.761
  42.000  680.650
  42.100  833.264
  42.200  901.554
  42.300  951.418
  42.400 1091.646
  42.500 1052.069
  42.600  933.568
  42.700 1078.489
  42.800  664.465
  42.900  545.138
  43.000  566.752
  43.100  682.848
  43.200  544.527
  43.300  674.805
  43.400  583.323
  43.500  438.135
  43.600  556.107
  43.700  666.172
  43.800  703.551
  43.900  538.363
  44.000  605.911

File: 2M1-std-27.TXT
Sample
Comments
Filename	C:\WINDMAX\DATA\USERS\GEO\GEO_ER~1\Pyrenees\BULKMA~1\2M1-std2.raw
Goniometer	Ultima IV In-plane
Attachment	Auto sample changer (10 samples)
ScanningMode	2Theta/Theta
ScanningType	Continuos Scanning
X-Ray	40kV/44mA
DivSlit	2/3deg.
DivH.L.Slit	10mm
SctSlit	2/3deg.
RecSlit	0.3mm
Start	16
Stop	44
Step	0.02
Speed	0.3
Offset	0
  16.000  779.007
  16.100  844.255
  16.200  704.742
  16.300  559.802
  16.400  659.931
  16.500  761.790
  16.600  554.661
  16.700  710.043
  16.800  670.173
  16.900  703.118
  17.000  678.292
  17.100  520.709
  17.200  751.880
  17.300  710.949
  17.400  669.792
  17.500  632.015
  17.600  882.931
  17.700  857.524
  17.800  974.463
  17.900 1432.602
  18.000 1308.399
  18.100 1241.203
  18.200  865.441
  18.300  812.311
  18.400  870.537
  18.500  703.928
  18.600  682.082
  18.700  658.006
  18.800  779.852
  18.900  776.206
  19.000  628.300
  19.100  616.987
  19.200  826.912
  19.300  785.717
  19.400  887.298
  19.500  796.082
  19.600  963.645
  19.700 1285.597
  19.800 1589.378
  19.900 2119.776
  20.000 2745.567
  20.100 2282.771
  20.200 1425.319
  20.300 1096.942
  20.400  979.028
  20.500  985.727
  20.600  992.958
  20.700 1202.309
  20.800 1124.348
  20.900 1173.487
  21.000  845.267
  21.100  910.407
  21.200  809.052
  21.300  848.031
  21.400  915.103
  21.500  819.593
  21.600  944.050
  21.700 1138.222
  21.800 1121.307
  21.900  934.780
  22.000  798.205
  22.100  783.559
  22.200  761.208
  22.300  739.492
  22.400  924.123
  22.500  912.355
  22.600 1030.208
  22.700  869.268
  22.800 1121.930
  22.900 1216.367
  23.000 1407.344
  23.100 1739.965
  23.200 1289.353
  23.300 1011.045
  23.400  937.149
  23.500  894.798
  23.600  994.717
  23.700 1134.605
  23.800 1109.324
  23.900 1426.011
  24.000 1681.925
  24.100 1356.542
  24.200 1366.715
  24.300 1169.961
  24.400  839.223
  24.500  761.914
  24.600  797.472
  24.700  733.692
  24.800  818.654
  24.900  940.246
  25.000  868.543
  25.100 1026.649
  25.200 1165.801
  25.300 1040.281
  25.400 1255.710
  25.500 1348.865
  25.600 1567.631
  25.700 1730.141
  25.800 1349.589
  25.900 1025.422
  26.000  892.065
  26.100  859.149
  26.200  801.687
  26.300  814.067
  26.400  854.509
  26.500 1179.668
  26.600 1381.122
  26.700 1737.266
  26.800 2184.177
  26.900 2370.569
  27.000 1770.782
  27.100 1472.428
  27.200 1068.161
  27.300 1027.728
  27.400  910.589
  27.500  799.843
  27.600 1049.109
  27.700  923.786
  27.800 1106.603
  27.900 1373.830
  28.000 1668.438
  28.100 1452.892
  28.200 1220.926
  28.300 1129.292
  28.400  818.232
  28.500  847.555
  28.600  948.722
  28.700  898.833
  28.800  973.869
  28.900  810.381
  29.000  857.916
  29.100  783.340
  29.200  831.118
  29.300  711.586
  29.400  860.338
  29.500  711.179
  29.600  837.275
  29.700  952.945
  29.800 1142.327
  29.900 1313.283
  30.000 1589.660
  30.100 1394.864
  30.200 1211.270
  30.300  855.316
  30.400  918.127
  30.500  664.835
  30.600  748.725
  30.700  698.194
  30.800  668.565
  30.900  764.438
  31.000  729.637
  31.100  960.345
  31.200 1075.181
  31.300 1412.196
  31.400 1587.333
  31.500 1528.424
  31.600 1431.135
  31.700 1426.472
  31.800 1298.062
  31.900 1111.585
  32.000 1089.872
  32.100 1081.526
  32.200 1050.637
  32.300 1021.170
  32.400  913.987
  32.500  779.539
  32.600  864.625
  32.700  757.361
  32.800  719.010
  32.900  607.642
  33.000  732.016
  33.100  674.783
  33.200  748.670
  33.300  575.663
  33.400  773.826
  33.500  661.369
  33.600  605.855
  33.700  643.163
  33.800  565.454
  33.900  739.143
  34.000  720.602
  34.100  616.263
  34.200  756.267
  34.300  752.227
  34.400  688.464
  34.500  956.416
  34.600 1195.207
  34.700 1604.384
  34.800 1589.206
  34.900 1714.963
  35.000 2016.678
  35.100 2553.603
  35.200 2738.868
  35.300 2163.073
  35.400 1412.683
  35.500  897.443
  35.600  801.710
  35.700  688.213
  35.800  879.280
  35.900  799.712
  36.000  868.045
  36.100  755.748
  36.200  793.559
  36.300  910.928
  36.400  786.543
  36.500  969.872
  36.600  966.128
  36.700 1008.195
  36.800 1136.024
  36.900 1016.428
  37.000  938.416
  37.100  790.486
  37.200  804.041
  37.300  702.820
  37.400  916.636
  37.500  901.289
  37.600  811.142
  37.700 1048.705
  37.800  998.513
  37.900 1093.313
  38.000 1182.166
  38.100 1117.922
  38.200  775.039
  38.300  827.649
  38.400  861.947
  38.500  780.838
  38.600  612.446
  38.700  696.738
  38.800  668.207
  38.900  613.422
  39.000  524.557
  39.100  715.070
  39.200  659.207
  39.300  533.967
  39.400  625.702
  39.500  694.316
  39.600  738.785
  39.700  526.937
  39.800  579.427
  39.900  752.297
  40.000  589.686
  40.100  754.587
  40.200  888.514
  40.300  950.432
  40.400  765.614
  40.500  741.739
  40.600  811.033
  40.700  748.681
  40.800  873.889
  40.900  980.088
  41.000  912.571
  41.100  856.533
  41.200  756.500
  41.300  706.908
  41.400  851.067
  41.500  834.201
  41.600  648.557
  41.700  821.978
  41.800  656.358
  41.900  762.925
  42.000  646.677
  42.100  853.555
  42.200  885.944
  42.300 1035.563
  42.400 1002.767
  42.500 1024.549
  42.600 1166.588
  42.700  868.872
  42.800  754.693
  42.900  633.262
  43.000  528.066
  43.100  461.182
  43.200  540.738
  43.300  614.108
  43.400  447.602
  43.500  585.432
  43.600  636.686
  43.700  620.888
  43.800  665.492
  43.900  613.847
  44.000  659.457