Folder: Linux_class/xrd_output/random_files (part 5)

File: 2M1-std-16.TXT
Sample
Comments
Filename	C:\WINDMAX\DATA\USERS\GEO\GEO_ER~1\Pyrenees\BULKMA~1\2M1-std2.raw
Goniometer	Ultima IV In-plane
Attachment	Auto sample changer (10 samples)
ScanningMode	2Theta/Theta
ScanningType	Continuos Scanning
X-Ray	40kV/44mA
DivSlit	2/3deg.
DivH.L.Slit	10mm
SctSlit	2/3deg.
RecSlit	0.3mm
Start	16
Stop	44
Step	0.02
Speed	0.3
Offset	0
  16.000  563.884
  16.100  800.112
  16.200  705.511
  16.300  669.666
  16.400  729.808
  16.500  694.581
  16.600  613.851
  16.700  678.657
  16.800  742.236
  16.900  524.045
  17.000  575.085
  17.100  584.537
  17.200  707.178
  17.300  724.197
  17.400  775.901
  17.500  748.046
  17.600  673.066
  17.700 1015.028
  17.800 1103.297
  17.900 1370.827
  18.000 1314.968
  18.100 1054.707
  18.200 1026.222
  18.300  816.603
  18.400  818.036
  18.500  661.939
  18.600  769.869
  18.700  873.755
  18.800  833.257
  18.900  702.883
  19.000  649.314
  19.100  584.834
  19.200  741.429
  19.300  746.364
  19.400  692.201
  19.500  807.174
  19.600  943.928
  19.700 1036.089
  19.800 1509.141
  19.900 2218.632
  20.000 2780.344
  20.100 2326.379
  20.200 1624.084
  20.300 1129.031
  20.400 1020.432
  20.500 1083.564
  20.600 1001.180
  20.700 1047.908
  20.800 1128.204
  20.900 1082.113
  21.000  864.800
  21.100  715.776
  21.200  889.769
  21.300  867.211
  21.400  811.750
  21.500  797.892
  21.600 1038.152
  21.700 1102.820
  21.800 1169.269
  21.900  878.895
  22.000  887.140
  22.100  776.278
  22.200  914.925
  22.300  856.890
  22.400  969.931
  22.500  906.118
  22.600 1044.377
  22.700  906.642
  22.800  940.798
  22.900 1239.306
  23.000 1543.033
  23.100 1714.346
  23.200 1278.289
  23.300 1090.723
  23.400  857.820
  23.500  842.127
  23.600  996.746
  23.700 1057.056
  23.800 1057.893
  23.900 1496.318
  24.000 1695.976
  24.100 1326.870
  24.200 1188.813
  24.300 1015.971
  24.400  920.010
  24.500  890.393
  24.600  702.199
  24.700  929.472
  24.800  686.283
  24.900  805.131
  25.000  783.676
  25.100 1082.644
  25.200 1208.475
  25.300 1024.615
  25.400 1200.180
  25.500 1309.938
  25.600 1729.334
  25.700 1742.713
  25.800 1338.277
  25.900  977.435
  26.000  827.667
  26.100  984.983
  26.200  805.614
  26.300  983.033
  26.400  905.289
  26.500 1154.682
  26.600 1364.070
  26.700 1896.471
  26.800 2310.415
  26.900 2280.666
  27.000 1755.804
  27.100 1496.405
  27.200  978.575
  27.300 1004.195
  27.400  968.725
  27.500  872.232
  27.600  922.531
  27.700  950.578
  27.800 1144.339
  27.900 1452.697
  28.000 1628.487
  28.100 1452.148
  28.200 1299.914
  28.300 1066.644
  28.400  947.938
  28.500  849.843
  28.600  774.660
  28.700  956.223
  28.800 1016.234
  28.900 1010.098
  29.000  833.242
  29.100  907.818
  29.200  729.806
  29.300  793.593
  29.400  835.441
  29.500  653.753
  29.600  916.376
  29.700 1024.961
  29.800 1068.333
  29.900 1354.032
  30.000 1681.235
  30.100 1418.386
  30.200 1155.923
  30.300 1025.250
  30.400  672.517
  30.500  804.124
  30.600  669.563
  30.700  794.827
  30.800  810.996
  30.900  820.599
  31.000  815.307
  31.100  902.485
  31.200 1276.311
  31.300 1481.603
  31.400 1687.300
  31.500 1526.399
  31.600 1570.997
  31.700 1383.079
  31.800 1237.172
  31.900 1295.738
  32.000  964.405
  32.100  992.798
  32.200 1202.837
  32.300  994.836
  32.400  748.300
  32.500  719.819
  32.600  727.705
  32.700  706.120
  32.800  709.530
  32.900  605.917
  33.000  685.015
  33.100  698.827
  33.200  622.908
  33.300  629.158
  33.400  522.620
  33.500  641.567
  33.600  660.586
  33.700  673.583
  33.800  645.826
  33.900  671.286
  34.000  604.120
  34.100  605.991
  34.200  893.759
  34.300  621.003
  34.400  827.246
  34.500  788.953
  34.600 1160.300
  34.700 1637.920
  34.800 1554.819
  34.900 1825.457
  35.000 1951.055
  35.100 2759.463
  35.200 2881.721
  35.300 1984.391
  35.400 1443.028
  35.500 1037.287
  35.600  848.909
  35.700  868.671
  35.800  672.879
  35.900  784.692
  36.000  965.747
  36.100  871.682
  36.200  773.040
  36.300  845.960
  36.400  954.078
  36.500  921.996
  36.600 1118.411
  36.700 1183.161
  36.800  901.092
  36.900  879.793
  37.000 1049.775
  37.100  775.000
  37.200  655.585
  37.300  660.019
  37.400  846.363
  37.500  975.145
  37.600  827.298
  37.700 1107.401
  37.800 1055.148
  37.900 1167.265
  38.000 1211.274
  38.100 1097.443
  38.200  867.055
  38.300  774.050
  38.400  800.220
  38.500  598.931
  38.600  771.443
  38.700  743.756
  38.800  592.136
  38.900  719.581
  39.000  573.775
  39.100  602.003
  39.200  644.142
  39.300  527.641
  39.400  651.419
  39.500  655.837
  39.600  596.096
  39.700  643.770
  39.800  719.626
  39.900  770.652
  40.000  617.761
  40.100  726.185
  40.200  731.159
  40.300  951.756
  40.400  926.280
  40.500  880.620
  40.600  826.535
  40.700  619.339
  40.800  726.691
  40.900  952.132
  41.000  891.769
  41.100  916.308
  41.200  840.468
  41.300  745.855
  41.400  664.077
  41.500  729.728
  41.600  727.195
  41.700  628.518
  41.800  547.903
  41.900  645.626
  42.000  745.480
  42.100  748.607
  42.200  903.600
  42.300 1020.476
  42.400 1103.964
  42.500 1154.632
  42.600  996.614
  42.700  927.398
  42.800  880.700
  42.900  533.478
  43.000  592.256
  43.100  643.720
  43.200  429.874
  43.300  435.902
  43.400  478.254
  43.500  481.619
  43.600  505.854
  43.700  595.336
  43.800  533.610
  43.900  701.965
  44.000  505.999

File: 2M1-std-17.TXT
Sample
Comments
Filename	C:\WINDMAX\DATA\USERS\GEO\GEO_ER~1\Pyrenees\BULKMA~1\2M1-std2.raw
Goniometer	Ultima IV In-plane
Attachment	Auto sample changer (10 samples)
ScanningMode	2Theta/Theta
ScanningType	Continuos Scanning
X-Ray	40kV/44mA
DivSlit	2/3deg.
DivH.L.Slit	10mm
SctSlit	2/3deg.
RecSlit	0.3mm
Start	16
Stop	44
Step	0.02
Speed	0.3
Offset	0
  16.000  802.488
  16.100  783.764
  16.200  790.326
  16.300  736.156
  16.400  672.594
  16.500  537.858
  16.600  699.207
  16.700  703.223
  16.800  651.008
  16.900  607.574
  17.000  656.934
  17.100  615.888
  17.200  625.001
  17.300  527.964
  17.400  649.865
  17.500  660.685
  17.600  716.263
  17.700  896.251
  17.800  987.223
  17.900 1421.780
  18.000 1373.229
  18.100 1252.673
  18.200  864.520
  18.300  716.478
  18.400  763.718
  18.500  845.211
  18.600  791.829
  18.700  658.870
  18.800  715.153
  18.900  683.543
  19.000  717.866
  19.100  786.788
  19.200  657.458
  19.300  852.499
  19.400  893.592
  19.500  766.310
  19.600  905.890
  19.700 1134.081
  19.800 1471.909
  19.900 2316.136
  20.000 2674.341
  20.100 2460.927
  20.200 1509.644
  20.300 1177.650
  20.400 1135.154
  20.500  863.552
  20.600  974.743
  20.700 1006.127
  20.800 1136.112
  20.900 1140.043
  21.000  957.155
  21.100  831.568
  21.200  896.496
  21.300  828.852
  21.400  725.254
  21.500 1031.280
  21.600  945.210
  21.700 1123.121
  21.800 1032.901
  21.900  851.376
  22.000  779.429
  22.100  695.375
  22.200  668.491
  22.300  768.373
  22.400  964.723
  22.500  791.316
  22.600  826.847
  22.700  887.553
  22.800 1003.606
  22.900 1204.530
  23.000 1495.637
  23.100 1583.290
  23.200 1246.965
  23.300 1004.241
  23.400  911.074
  23.500  873.695
  23.600  943.471
  23.700 1070.334
  23.800 1073.332
  23.900 1359.532
  24.000 1487.482
  24.100 1440.589
  24.200 1321.736
  24.300 1223.381
  24.400 1024.738
  24.500  749.475
  24.600  818.192
  24.700  930.667
  24.800  730.854
  24.900  820.370
  25.000  788.003
  25.100  929.739
  25.200 1203.492
  25.300 1138.444
  25.400 1093.313
  25.500 1377.528
  25.600 1652.250
  25.700 1631.906
  25.800 1204.915
  25.900 1077.995
  26.000  960.024
  26.100  931.606
  26.200  751.191
  26.300  816.186
  26.400 1020.325
  26.500 1013.381
  26.600 1332.761
  26.700 1934.570
  26.800 2147.696
  26.900 2241.776
  27.000 1778.460
  27.100 1370.947
  27.200 1111.981
  27.300  889.319
  27.400  792.185
  27.500  954.328
  27.600  859.265
  27.700  936.413
  27.800 1217.943
  27.900 1457.308
  28.000 1679.775
  28.100 1453.461
  28.200 1178.092
  28.300 1027.373
  28.400  949.463
  28.500 1007.996
  28.600  883.572
  28.700 1044.609
  28.800  915.660
  28.900  990.333
  29.000  893.863
  29.100  755.805
  29.200  678.571
  29.300  691.472
  29.400  654.482
  29.500  846.789
  29.600  835.765
  29.700  913.633
  29.800 1188.231
  29.900 1305.539
  30.000 1663.683
  30.100 1482.274
  30.200 1210.247
  30.300  777.675
  30.400  745.823
  30.500  768.641
  30.600  652.402
  30.700  606.180
  30.800  650.327
  30.900  749.909
  31.000  790.547
  31.100 1059.585
  31.200 1038.104
  31.300 1521.140
  31.400 1481.481
  31.500 1485.274
  31.600 1555.596
  31.700 1522.300
  31.800 1249.272
  31.900 1254.443
  32.000 1098.398
  32.100 1059.397
  32.200 1103.092
  32.300  949.643
  32.400  900.398
  32.500  716.338
  32.600  837.780
  32.700  616.586
  32.800  735.970
  32.900  678.671
  33.000  660.448
  33.100  569.278
  33.200  703.442
  33.300  744.802
  33.400  667.086
  33.500  689.600
  33.600  507.102
  33.700  754.094
  33.800  572.453
  33.900  756.561
  34.000  693.485
  34.100  844.256
  34.200  885.680
  34.300  703.070
  34.400  820.620
  34.500 1021.477
  34.600 1150.063
  34.700 1428.203
  34.800 1774.187
  34.900 1888.017
  35.000 2041.905
  35.100 2755.045
  35.200 2903.483
  35.300 2137.200
  35.400 1438.149
  35.500 1042.145
  35.600  802.973
  35.700  879.063
  35.800  782.214
  35.900  724.787
  36.000  923.612
  36.100  805.267
  36.200  839.133
  36.300  743.223
  36.400  949.907
  36.500  860.643
  36.600 1149.515
  36.700 1177.152
  36.800 1112.593
  36.900  872.187
  37.000  910.527
  37.100  834.267
  37.200  875.353
  37.300  780.463
  37.400  895.236
  37.500  906.106
  37.600  969.587
  37.700  915.243
  37.800 1143.493
  37.900 1296.849
  38.000 1173.817
  38.100  927.006
  38.200  855.909
  38.300  894.853
  38.400  640.290
  38.500  606.587
  38.600  523.477
  38.700  660.832
  38.800  524.787
  38.900  650.522
  39.000  731.875
  39.100  542.987
  39.200  664.185
  39.300  515.289
  39.400  626.521
  39.500  658.494
  39.600  730.321
  39.700  653.101
  39.800  511.429
  39.900  738.325
  40.000  577.522
  40.100  751.300
  40.200  911.384
  40.300  854.814
  40.400  963.872
  40.500  761.559
  40.600  928.049
  40.700  676.435
  40.800  863.145
  40.900  764.282
  41.000  904.974
  41.100  796.115
  41.200  680.499
  41.300  671.189
  41.400  917.677
  41.500  728.737
  41.600  616.183
  41.700  745.542
  41.800  597.983
  41.900  789.288
  42.000  652.417
  42.100  868.863
  42.200  848.013
  42.300  842.098
  42.400 1072.559
  42.500 1058.312
  42.600 1005.627
  42.700  928.553
  42.800  885.354
  42.900  619.983
  43.000  627.047
  43.100  455.705
  43.200  580.734
  43.300  503.348
  43.400  426.477
  43.500  470.153
  43.600  496.418
  43.700  555.023
  43.800  555.612
  43.900  594.553
  44.000  505.658

File: 2M1-std-18.TXT
Sample
Comments
Filename	C:\WINDMAX\DATA\USERS\GEO\GEO_ER~1\Pyrenees\BULKMA~1\2M1-std2.raw
Goniometer	Ultima IV In-plane
Attachment	Auto sample changer (10 samples)
ScanningMode	2Theta/Theta
ScanningType	Continuos Scanning
X-Ray	40kV/44mA
DivSlit	2/3deg.
DivH.L.Slit	10mm
SctSlit	2/3deg.
RecSlit	0.3mm
Start	16
Stop	44
Step	0.02
Speed	0.3
Offset	0
  16.000  614.226
  16.100  712.803
  16.200  716.558
  16.300  539.020
  16.400  526.958
  16.500  681.134
  16.600  701.053
  16.700  545.377
  16.800  743.378
  16.900  675.252
  17.000  570.021
  17.100  581.108
  17.200  603.797
  17.300  600.715
  17.400  685.414
  17.500  795.730
  17.600  862.881
  17.700  830.777
  17.800 1067.070
  17.900 1427.375
  18.000 1369.636
  18.100 1148.631
  18.200  889.680
  18.300  650.568
  18.400  673.499
  18.500  636.932
  18.600  866.365
  18.700  778.788
  18.800  772.065
  18.900  597.988
  19.000  649.199
  19.100  694.965
  19.200  773.061
  19.300  701.245
  19.400  712.588
  19.500  895.673
  19.600  835.813
  19.700 1207.912
  19.800 1536.507
  19.900 2276.140
  20.000 2610.488
  20.100 2360.695
  20.200 1372.014
  20.300 1281.362
  20.400 1189.497
  20.500 1043.180
  20.600  903.175
  20.700 1050.572
  20.800 1101.322
  20.900 1072.803
  21.000  800.883
  21.100  914.212
  21.200  742.163
  21.300  762.916
  21.400  761.595
  21.500 1035.039
  21.600 1158.079
  21.700 1182.290
  21.800 1150.877
  21.900  855.999
  22.000  751.059
  22.100  704.560
  22.200  770.081
  22.300  707.749
  22.400  915.691
  22.500  922.398
  22.600  954.251
  22.700 1022.722
  22.800 1126.270
  22.900 1305.978
  23.000 1568.586
  23.100 1687.088
  23.200 1213.275
  23.300 1144.180
  23.400  848.154
  23.500  770.034
  23.600  835.633
  23.700  882.938
  23.800 1235.501
  23.900 1441.631
  24.000 1663.373
  24.100 1581.759
  24.200 1285.926
  24.300 1176.224
  24.400  927.349
  24.500  802.190
  24.600  885.363
  24.700  870.334
  24.800  736.846
  24.900  761.373
  25.000  989.568
  25.100 1073.974
  25.200 1046.641
  25.300 1043.162
  25.400 1184.034
  25.500 1317.193
  25.600 1700.890
  25.700 1523.989
  25.800 1352.055
  25.900 1137.939
  26.000  836.543
  26.100  942.802
  26.200  893.783
  26.300  959.605
  26.400 1068.300
  26.500 1018.590
  26.600 1502.912
  26.700 1903.413
  26.800 2303.531
  26.900 2412.842
  27.000 1796.766
  27.100 1442.259
  27.200 1111.531
  27.300  873.629
  27.400  877.697
  27.500  823.855
  27.600  889.466
  27.700 1075.497
  27.800 1129.320
  27.900 1499.282
  28.000 1588.345
  28.100 1404.592
  28.200 1305.162
  28.300  943.959
  28.400  935.171
  28.500  824.737
  28.600  817.547
  28.700  944.610
  28.800  800.900
  28.900  938.778
  29.000  737.755
  29.100  811.604
  29.200  814.183
  29.300  648.019
  29.400  636.621
  29.500  752.104
  29.600  810.362
  29.700  867.026
  29.800 1102.697
  29.900 1332.734
  30.000 1470.376
  30.100 1390.105
  30.200 1030.339
  30.300  848.878
  30.400  901.586
  30.500  731.907
  30.600  678.898
  30.700  570.505
  30.800  701.178
  30.900  674.570
  31.000  753.319
  31.100 1079.306
  31.200 1026.790
  31.300 1515.659
  31.400 1496.809
  31.500 1486.042
  31.600 1460.073
  31.700 1369.069
  31.800 1474.098
  31.900 1300.986
  32.000  926.717
  32.100 1043.115
  32.200 1152.545
  32.300 1134.317
  32.400  829.127
  32.500  861.484
  32.600  730.376
  32.700  744.830
  32.800  645.202
  32.900  723.681
  33.000  718.703
  33.100  671.099
  33.200  754.770
  33.300  782.817
  33.400  713.192
  33.500  677.863
  33.600  731.518
  33.700  743.531
  33.800  568.925
  33.900  626.746
  34.000  791.429
  34.100  638.695
  34.200  803.891
  34.300  617.341
  34.400  733.694
  34.500  830.020
  34.600 1087.078
  34.700 1642.853
  34.800 1579.094
  34.900 1808.291
  35.000 2004.189
  35.100 2683.336
  35.200 2796.189
  35.300 2093.332
  35.400 1294.449
  35.500  887.089
  35.600  921.642
  35.700  768.548
  35.800  827.575
  35.900  753.994
  36.000  819.960
  36.100  763.323
  36.200  916.921
  36.300  922.713
  36.400  874.472
  36.500 1029.499
  36.600 1147.779
  36.700 1154.172
  36.800 1118.092
  36.900  896.821
  37.000  854.502
  37.100  701.015
  37.200  781.959
  37.300  709.097
  37.400  883.076
  37.500  938.851
  37.600  810.113
  37.700 1104.718
  37.800 1141.102
  37.900 1168.235
  38.000 1243.092
  38.100 1043.558
  38.200  824.071
  38.300  857.333
  38.400  866.710
  38.500  588.815
  38.600  671.617
  38.700  605.104
  38.800  510.751
  38.900  586.607
  39.000  480.177
  39.100  515.420
  39.200  616.508
  39.300  684.115
  39.400  644.010
  39.500  570.305
  39.600  726.013
  39.700  611.999
  39.800  759.508
  39.900  670.517
  40.000  641.521
  40.100  868.038
  40.200  717.883
  40.300  995.714
  40.400  840.138
  40.500  807.832
  40.600  687.074
  40.700  796.938
  40.800  835.448
  40.900  755.615
  41.000  915.504
  41.100  966.898
  41.200  809.226
  41.300  711.307
  41.400  803.857
  41.500  734.852
  41.600  661.455
  41.700  684.423
  41.800  601.475
  41.900  770.699
  42.000  831.515
  42.100  816.803
  42.200  832.371
  42.300  932.336
  42.400 1003.714
  42.500  960.755
  42.600 1004.139
  42.700  939.763
  42.800  721.781
  42.900  714.226
  43.000  595.210
  43.100  695.954
  43.200  471.155
  43.300  649.048
  43.400  569.797
  43.500  574.872
  43.600  649.285
  43.700  627.111
  43.800  515.046
  43.900  500.784
  44.000  544.260

File: 2M1-std-19.TXT
Sample
Comments
Filename	C:\WINDMAX\DATA\USERS\GEO\GEO_ER~1\Pyrenees\BULKMA~1\2M1-std2.raw
Goniometer	Ultima IV In-plane
Attachment	Auto sample changer (10 samples)
ScanningMode	2Theta/Theta
ScanningType	Continuos Scanning
X-Ray	40kV/44mA
DivSlit	2/3deg.
DivH.L.Slit	10mm
SctSlit	2/3deg.
RecSlit	0.3mm
Start	16
Stop	44
Step	0.02
Speed	0.3
Offset	0
  16.000  584.490
  16.100  830.956
  16.200  786.089
  16.300  528.014
  16.400  709.998
  16.500  551.753
  16.600  522.765
  16.700  647.312
  16.800  685.224
  16.900  689.585
  17.000  565.867
  17.100  525.091
  17.200  531.744
  17.300  532.888
  17.400  593.258
  17.500  772.031
  17.600  709.593
  17.700  897.879
  17.800 1138.183
  17.900 1351.229
  18.000 1401.452
  18.100 1065.811
  18.200  910.911
  18.300  853.016
  18.400  735.214
  18.500  797.711
  18.600  743.759
  18.700  652.227
  18.800  877.211
  18.900  725.407
  19.000  656.326
  19.100  777.398
  19.200  835.903
  19.300  842.746
  19.400  644.964
  19.500  713.929
  19.600 1039.506
  19.700 1090.085
  19.800 1480.765
  19.900 2284.436
  20.000 2604.946
  20.100 2247.557
  20.200 1457.577
  20.300 1253.135
  20.400 1007.828
  20.500 1073.561
  20.600 1060.202
  20.700 1098.324
  20.800 1289.698
  20.900 1027.660
  21.000  841.857
  21.100  879.084
  21.200  804.938
  21.300  703.925
  21.400  765.515
  21.500  854.335
  21.600 1101.670
  21.700  988.460
  21.800  928.473
  21.900  818.353
  22.000  842.399
  22.100  794.559
  22.200  671.823
  22.300  858.949
  22.400  737.932
  22.500  808.314
  22.600  892.758
  22.700  813.969
  22.800 1009.938
  22.900 1205.821
  23.000 1560.804
  23.100 1489.075
  23.200 1439.127
  23.300  921.570
  23.400  768.138
  23.500  847.398
  23.600  920.286
  23.700  887.579
  23.800 1072.030
  23.900 1343.612
  24.000 1615.319
  24.100 1459.152
  24.200 1215.186
  24.300 1073.804
  24.400  992.829
  24.500  795.007
  24.600  779.790
  24.700  836.211
  24.800  755.668
  24.900  812.746
  25.000  827.513
  25.100  968.495
  25.200  996.383
  25.300 1105.910
  25.400 1114.098
  25.500 1548.706
  25.600 1771.298
  25.700 1670.893
  25.800 1422.357
  25.900 1049.001
  26.000  984.632
  26.100  794.758
  26.200  868.829
  26.300  840.305
  26.400  873.210
  26.500 1049.426
  26.600 1382.693
  26.700 1874.702
  26.800 2148.629
  26.900 2439.717
  27.000 1831.422
  27.100 1362.221
  27.200  961.664
  27.300 1059.964
  27.400  994.848
  27.500  911.472
  27.600  902.796
  27.700  958.570
  27.800 1076.243
  27.900 1488.584
  28.000 1643.959
  28.100 1657.377
  28.200 1278.036
  28.300 1168.123
  28.400  895.087
  28.500  794.037
  28.600  753.487
  28.700  824.378
  28.800  928.851
  28.900  763.273
  29.000  827.118
  29.100  727.414
  29.200  659.631
  29.300  763.096
  29.400  843.275
  29.500  857.695
  29.600  791.239
  29.700  951.934
  29.800 1093.449
  29.900 1342.440
  30.000 1443.679
  30.100 1491.081
  30.200 1140.983
  30.300  971.943
  30.400  895.519
  30.500  732.021
  30.600  712.756
  30.700  642.179
  30.800  779.565
  30.900  735.390
  31.000  704.817
  31.100 1004.501
  31.200 1212.987
  31.300 1536.818
  31.400 1501.968
  31.500 1513.433
  31.600 1454.286
  31.700 1351.079
  31.800 1264.166
  31.900 1188.367
  32.000 1041.827
  32.100 1143.515
  32.200 1040.199
  32.300  983.907
  32.400  827.892
  32.500  869.603
  32.600  791.879
  32.700  770.541
  32.800  785.249
  32.900  757.696
  33.000  730.734
  33.100  675.671
  33.200  807.114
  33.300  659.406
  33.400  660.211
  33.500  586.043
  33.600  710.040
  33.700  719.288
  33.800  653.509
  33.900  647.966
  34.000  813.567
  34.100  735.956
  34.200  777.758
  34.300  824.422
  34.400  896.799
  34.500  923.408
  34.600 1098.193
  34.700 1589.986
  34.800 1781.094
  34.900 1751.221
  35.000 1988.292
  35.100 2539.797
  35.200 2826.736
  35.300 2159.427
  35.400 1460.621
  35.500  887.297
  35.600  958.536
  35.700  703.545
  35.800  684.031
  35.900  771.363
  36.000  984.701
  36.100  770.392
  36.200  852.401
  36.300  826.970
  36.400  764.154
  36.500  965.551
  36.600 1158.713
  36.700  939.783
  36.800  947.788
  36.900 1020.876
  37.000  934.620
  37.100  700.025
  37.200  664.320
  37.300  636.194
  37.400  928.257
  37.500  939.545
  37.600  843.448
  37.700 1034.996
  37.800 1179.358
  37.900 1210.490
  38.000 1173.806
  38.100  994.048
  38.200  987.992
  38.300  727.835
  38.400  819.151
  38.500  828.754
  38.600  541.779
  38.700  717.368
  38.800  710.429
  38.900  623.742
  39.000  535.593
  39.100  608.836
  39.200  570.604
  39.300  737.010
  39.400  670.944
  39.500  599.639
  39.600  734.293
  39.700  705.059
  39.800  747.727
  39.900  697.070
  40.000  801.113
  40.100  837.548
  40.200  813.320
  40.300  972.374
  40.400  796.470
  40.500  681.830
  40.600  747.947
  40.700  795.857
  40.800  796.952
  40.900  884.012
  41.000  875.164
  41.100  932.358
  41.200  814.865
  41.300  732.969
  41.400  750.940
  41.500  847.929
  41.600  691.456
  41.700  617.933
  41.800  735.973
  41.900  801.810
  42.000  786.296
  42.100  885.485
  42.200 1049.248
  42.300  998.832
  42.400 1118.680
  42.500 1174.151
  42.600 1014.109
  42.700  921.587
  42.800  660.642
  42.900  657.509
  43.000  754.788
  43.100  585.369
  43.200  535.376
  43.300  465.478
  43.400  583.212
  43.500  457.754
  43.600  467.640
  43.700  619.836
  43.800  567.052
  43.900  591.414
  44.000  700.834